TimeStamp,AccelerometerX,AccelerometerY,AccelerometerZ,GyroscopeX,GyroscopeY,GyroscopeZ
303616.4551,1.52173913,10.9673913,2.032608696,-1.770992366,1.664122137,0.519083969
303636.4441,1.47826087,10.98913043,2.076086957,-1.312977099,1.496183206,0.671755725
303656.4331,1.423913043,11.07608696,2.086956522,-1.267175573,1.374045802,0.610687023
303676.4221,1.369565217,11.06521739,2.086956522,-2.702290076,0.687022901,0.427480916
303696.4111,1.456521739,11.05434783,2.119565217,-2.045801527,1.419847328,0.427480916
303716.4001,1.467391304,11.02173913,2.173913043,-1.435114504,2.061068702,0.564885496
303736.3892,1.413043478,11.02173913,2.141304348,-1.312977099,2.27480916,0.870229008
303756.3782,1.434782609,11.07608696,2.086956522,-0.992366412,1.618320611,0.213740458
303776.3672,1.510869565,11.15217391,2.010869565,-1.664122137,1.022900763,-0.076335878
303796.3562,1.456521739,11.17391304,1.956521739,-1.236641221,0.229007634,-0.27480916
303816.3452,1.5,10.85869565,2.010869565,-0.748091603,1.984732824,0.473282443
303836.3342,1.47826087,10.98913043,2.065217391,-0.854961832,2,0.519083969
303856.3232,1.565217391,11.08695652,2.217391304,-1.58778626,2.839694656,0.030534351
303876.3123,1.543478261,11.01086957,2.119565217,0.305343511,1.496183206,0.015267176
303896.3013,1.565217391,11.01086957,2.130434783,-0.549618321,0.977099237,0.335877863
303916.2903,1.510869565,11.05434783,2.119565217,-0.961832061,0.93129771,0.473282443
303936.2793,1.52173913,11.05434783,2.130434783,-2.427480916,1.129770992,0.305343511
303956.2683,1.510869565,11.01086957,2.152173913,-0.519083969,0.122137405,0.061068702
303976.2573,1.467391304,11,2.25,-1.160305344,2.198473282,0.259541985
303996.2463,1.5,10.97826087,2.206521739,0.41221374,2.091603053,0.122137405
304016.2354,1.5,11.11956522,2.206521739,-0.93129771,1.083969466,0.564885496
304036.2244,1.510869565,10.89130435,2.163043478,-0.79389313,0.946564885,0.687022901
304056.2134,1.489130435,10.91304348,2.097826087,-1.099236641,0.687022901,0.870229008
304076.2024,1.510869565,11.01086957,2.184782609,-1.664122137,1.832061069,0.580152672
304096.1914,1.5,10.98913043,2.152173913,-1.267175573,2.396946565,0.946564885
304116.1804,1.510869565,11.04347826,2.119565217,-0.916030534,1.465648855,0.671755725
304136.1694,1.52173913,11.07608696,2.108695652,-0.900763359,0.534351145,0.625954198
304156.1584,1.434782609,11.20652174,2.086956522,-0.442748092,-0.65648855,-0.259541985
304176.1475,1.510869565,10.82608696,2.108695652,-1.633587786,1.465648855,0
304196.1365,1.532608696,10.93478261,2.119565217,-0.183206107,1.404580153,0.641221374
304216.1255,1.565217391,11.07608696,2.25,-1.496183206,2.702290076,0.290076336
304236.1145,1.554347826,11.0326087,2.097826087,0.824427481,1.022900763,0.488549618
304256.1035,1.467391304,11.05434783,2.054347826,-0.396946565,-0.061068702,0.41221374
304276.0925,1.467391304,11.10869565,2.108695652,-0.488549618,0.427480916,0.015267176
304296.0815,1.554347826,10.95652174,2.141304348,-0.778625954,1.251908397,0.488549618
304316.0706,1.586956522,11,2.108695652,-1.099236641,1.832061069,0.396946565
304336.0596,1.565217391,10.97826087,2.239130435,-0.79389313,2.259541985,0.335877863
304356.0486,1.5,11,2.206521739,-0.167938931,2.671755725,0.41221374
304376.0376,1.5,11,2.076086957,-0.351145038,2.015267176,0.625954198
304396.0266,1.5,11.0326087,2.086956522,-1.374045802,1.801526718,1.175572519
304416.0156,1.52173913,11.02173913,2.097826087,-1.419847328,1.877862595,1.129770992
304436.0046,1.510869565,11.10869565,2.173913043,-1.816793893,1.770992366,0.687022901
304455.9937,1.532608696,11.09782609,2.141304348,-1.648854962,1.374045802,0.473282443
304475.9827,1.434782609,11,2.032608696,1.160305344,-0.061068702,0.091603053
304495.9717,1.5,11.05434783,2.130434783,-0.65648855,0.534351145,-0.061068702
304515.9607,1.510869565,11.01086957,2.086956522,0.229007634,0.106870229,0.122137405
304535.9497,1.52173913,11.01086957,2.119565217,-0.305343511,-0.625954198,0.122137405
304555.9387,1.586956522,10.93478261,2.119565217,0.045801527,-0.061068702,0.076335878
304575.9277,1.565217391,10.9673913,2.152173913,0.152671756,0.79389313,0.473282443
304595.9167,1.543478261,11.04347826,2.206521739,-0.549618321,0.503816794,0.564885496
304615.9058,1.554347826,11.05434783,2.141304348,-0.503816794,0.106870229,0.259541985
304635.8948,1.543478261,11.06521739,2.173913043,-0.305343511,0.900763359,0.015267176
304655.8838,1.5,11.01086957,2.130434783,-0.27480916,0.870229008,-0.015267176
304675.8728,1.423913043,10.9673913,2.097826087,-0.030534351,0.916030534,0.198473282
304695.8618,1.445652174,11.01086957,2.054347826,-0.335877863,1.06870229,0.183206107
304715.8508,1.434782609,11.0326087,2.065217391,-1.114503817,1.282442748,0.564885496
304735.8398,1.489130435,11.02173913,2.065217391,-1.114503817,0.900763359,0.198473282
304755.8289,1.456521739,11.04347826,2.010869565,-0.671755725,0.396946565,0.030534351
304775.8179,1.5,11.04347826,2.010869565,-0.213740458,0.473282443,-0.015267176
304795.8069,1.510869565,11.0326087,2.054347826,-0.763358779,1.145038168,0.045801527
304815.7959,1.532608696,11.05434783,2.206521739,-0.870229008,1.694656489,0.015267176
304835.7849,1.630434783,11.01086957,2.195652174,-1.526717557,3.175572519,-0.213740458
304855.7739,1.684782609,10.98913043,1.989130435,-0.488549618,4.381679389,-0.458015267
304875.7629,1.695652174,10.98913043,1.923913043,0.763358779,3.58778626,-0.65648855
304895.752,1.695652174,11.04347826,1.913043478,1.877862595,3.969465649,-0.564885496
304915.741,1.706521739,11.01086957,1.967391304,1.328244275,5.893129771,-0.41221374
304935.73,1.739130435,10.94565217,1.891304348,1.145038168,7.618320611,0.748091603
304955.719,1.77173913,10.92391304,1.913043478,2.183206107,8.977099237,1.099236641
304975.708,1.858695652,11.02173913,1.891304348,3.877862595,10.85496183,0.65648855
304995.697,1.97826087,11.07608696,1.836956522,5.511450382,13.38931298,0.610687023
305015.686,1.945652174,11.14130435,1.847826087,5.129770992,14.39694656,0.992366412
305035.675,1.760869565,11.01086957,1.869565217,3.908396947,13.48091603,1.404580153
305055.6641,1.663043478,10.90217391,1.77173913,3.450381679,13.09923664,2.106870229
305075.6531,1.75,10.86956522,1.695652174,3.72519084,13.90839695,2.213740458
305095.6421,1.739130435,10.76086957,1.608695652,7.770992366,12.10687023,1.083969466
305115.6311,1.684782609,10.72826087,1.554347826,10.7480916,10.5648855,-0.091603053
305135.6201,1.663043478,10.72826087,1.543478261,11.96946565,8.702290076,-1.801526718
305155.6091,1.619565217,10.81521739,1.576086957,12.30534351,7.832061069,-2.290076336
305175.5981,1.423913043,11.07608696,1.673913043,11.63358779,4.595419847,-3.129770992
305195.5872,1.282608696,11.30434783,1.836956522,9.419847328,2.290076336,-4.091603053
305215.5762,1.391304348,11.34782609,1.815217391,8.854961832,-0.076335878,-4.900763359
305235.5652,1.576086957,11.11956522,1.52173913,11.22137405,-2.244274809,-5.816793893
305255.5542,1.565217391,10.98913043,1.163043478,14.39694656,-7.236641221,-7.251908397
305275.5432,1.260869565,10.90217391,1.097826087,16.03053435,-11.09923664,-8.152671756
305295.5322,0.923913043,10.80434783,1.152173913,15.92366412,-13.41984733,-8.595419847
305315.5212,0.597826087,10.85869565,1.293478261,13.98473282,-18.39694656,-7.709923664
305335.5103,0.184782609,10.9673913,1.445652174,13.70992366,-30.47328244,-7.480916031
305355.4993,0.010869565,11.11956522,1.576086957,12.70229008,-38.39694656,-6.580152672
305375.4883,-0.054347826,11.29347826,1.673913043,6.076335878,-37.72519084,-4.41221374
305395.4773,0.565217391,11.17391304,1.956521739,-1.374045802,-29.03816794,-0.870229008
305415.4663,1.130434783,11.22826087,2.22826087,-4.595419847,-21.80152672,0.687022901
305435.4553,1.467391304,11.43478261,2.27173913,-5.984732824,-17.9389313,0.977099237
305455.4443,1.282608696,11.5326087,2.217391304,-7.160305344,-13.89312977,0.992366412
305475.4333,0.793478261,11.45652174,2.054347826,-10.38167939,-10.13740458,1.083969466
305495.4224,-0.032608696,11.45652174,1.782608696,-7.190839695,-12.80916031,0.534351145
305515.4114,-0.22826087,11.06521739,1.836956522,-16.79389313,-7.236641221,2.824427481
305535.4004,-0.141304348,10.5326087,1.945652174,-21.06870229,-4.946564885,6.183206107
305555.3894,0.22826087,10.34782609,2.086956522,-23.9389313,-2.244274809,7.709923664
305575.3784,0.782608696,10.2826087,2.163043478,-22.48854962,3.007633588,9.374045802
305595.3674,1.282608696,10.55434783,1.836956522,-19.22137405,8.79389313,9.480916031
305615.3564,1.630434783,10.41304348,1.554347826,-16.0610687,11.78625954,8.977099237
305635.3455,1.673913043,10.41304348,1.304347826,-8.519083969,12.54961832,10.33587786
305655.3345,1.293478261,11.0326087,1.239130435,-8.244274809,14.97709924,12.29007634
305675.3235,1.206521739,11.27173913,0.836956522,-5.893129771,15.19083969,13.66412214
305695.3125,1.619565217,11.5,0.576086957,0.503816794,15.92366412,12.45801527
305715.3015,2.119565217,11.56521739,0.782608696,5.72519084,18.94656489,11.72519084
305735.2905,2.5,11.22826087,1.326086957,6.885496183,24.70229008,11.58778626
305755.2795,2.663043478,10.5,1.858695652,4.885496183,33.80152672,12.5648855
305775.2686,2.739130435,9.619565217,2.489130435,0.732824427,48.87022901,13.46564885
305795.2576,2.989130435,9.858695652,2.554347826,3.022900763,59.35877863,15.75572519
305815.2466,3.239130435,10.84782609,2.402173913,5.908396947,63.81679389,16.90076336
305835.2356,3.195652174,11.79347826,2.27173913,10.51908397,60.80916031,16.65648855
305855.2246,2.804347826,12.30434783,1.989130435,11.77099237,57.96946565,13.41984733
305875.2136,2.27173913,12,1.847826087,7.221374046,56.10687023,10.61068702
305895.2026,1.97826087,11.31521739,1.913043478,1.450381679,62.93129771,12
305915.1917,2.119565217,11.06521739,1.760869565,-1.34351145,70.0610687,15.52671756
305935.1807,2.326086957,10.73913043,1.47826087,-0.442748092,74.82442748,17.3129771
305955.1697,2.22826087,10.72826087,1.423913043,2.381679389,77.80152672,14.64122137
305975.1587,2.043478261,10.97826087,1.641304348,-0.015267176,77.81679389,9.541984733
305995.1477,1.891304348,10.91304348,1.815217391,1.374045802,73.29770992,4.213740458
306015.1367,1.782608696,10.82608696,1.880434783,6.091603053,64.01526718,2.13740458
306035.1257,1.576086957,11.06521739,2.141304348,6.977099237,51.48091603,0.916030534
306055.1147,1.358695652,11.13043478,2.043478261,5.72519084,34.91603053,1.938931298
306075.1038,1.239130435,11.29347826,1.880434783,5.908396947,21.3129771,2.564885496
306095.0928,1.336956522,11.54347826,2,-1.358778626,11.70992366,1.877862595
306115.0818,2.02173913,11.44565217,1.967391304,-4.809160305,2.549618321,-0.015267176
306135.0708,2.652173913,10.92391304,2.032608696,-5.679389313,-5.282442748,0.366412214
306155.0598,2.77173913,10.81521739,1.858695652,1.496183206,-16.42748092,-1.114503817
306175.0488,2.75,10.65217391,1.717391304,0.076335878,-20.41221374,0.229007634
306195.0378,2.913043478,10.5,1.532608696,10.85496183,-22.24427481,0.854961832
306215.0269,3.22826087,10.54347826,1.543478261,18.50381679,-21.90839695,1.389312977
306235.0159,3.717391304,10.31521739,1.163043478,25.03816794,-25.54198473,1.328244275
306255.0049,3.695652174,10.25,0.72826087,37.20610687,-34.97709924,1.938931298
306274.9939,2.880434783,10.57608696,0.532608696,42.44274809,-44.6259542,5.20610687
306294.9829,1.945652174,10.76086957,0.336956522,38.44274809,-48.04580153,12.24427481
306314.9719,1.5,10.45652174,-0.163043478,36.42748092,-51.72519084,18.5648855
306334.9609,1.554347826,10.32608696,-0.163043478,40.29007634,-62.97709924,20.35114504
306354.95,1.934782609,10.34782609,0.163043478,35.69465649,-75.98473282,15.46564885
306374.939,2.173913043,10.19565217,0.184782609,33.06870229,-85.58778626,4.488549618
306394.928,2.25,9.739130435,-0.543478261,36.39694656,-88.44274809,-4.244274809
306414.917,1.934782609,9.25,-1.304347826,47.64885496,-94.7480916,-9.06870229
306434.906,1.847826087,9.47826087,-1.576086957,48.87022901,-100.2137405,-10.13740458
306454.895,1.673913043,9.152173913,-1.652173913,44.48854962,-99.06870229,-15.78625954
306474.884,1.52173913,9.423913043,-1.52173913,51.52671756,-104.6564885,-19.4351145
306494.873,1.836956522,9.27173913,-1.619565217,50.24427481,-106.5343511,-19.96946565
306514.8621,2.304347826,9.130434783,-1.641304348,50.38167939,-106.2137405,-22
306534.8511,2.826086957,8.641304348,-1.543478261,57.9389313,-104.3664122,-20.90076336
306554.8401,2.989130435,8.565217391,-0.684782609,76.38167939,-100.2748092,-20.65648855
306574.8291,2.402173913,9.206521739,0.510869565,95.09923664,-93.89312977,-20.76335878
306594.8181,1.467391304,10.06521739,1.02173913,97.95419847,-83.06870229,-26.16793893
306614.8071,1.260869565,11.32608696,0.510869565,88.48854962,-65.74045802,-28.30534351
306634.7961,1.391304348,11.61956522,-0.434782609,88.33587786,-35.20610687,-24.16793893
306654.7852,0.77173913,10.75,-2.836956522,151.0687023,7.236641221,-19.8778626
306674.7742,-1,10.04347826,-5,232.5343511,36.83969466,-10.82442748
306694.7632,-2.369565217,10.56521739,-4.934782609,248.9007634,18.38167939,1.282442748
306714.7522,-0.77173913,11.22826087,-2.934782609,209.2824427,-0.290076336,1.511450382
306734.7412,1.586956522,9.163043478,-1.652173913,150.6870229,4.625954198,-12.32061069
306754.7302,2.782608696,6,-1.597826087,135.2061069,3.480916031,-36.39694656
306774.7192,2.336956522,4.347826087,-1.891304348,138.8244275,-3.801526718,-55.40458015
306794.7083,-0.163043478,5.630434783,-1.467391304,122.2290076,-7.755725191,-64.25954198
306814.6973,-0.260869565,5.217391304,-2.206521739,131.6183206,-0.534351145,-62.97709924
306834.6863,-0.510869565,4.847826087,-4,204.0152672,8.152671756,-49.96946565
306854.6753,-0.836956522,5.72826087,-6.010869565,263.9389313,28.77862595,-36.80916031
306874.6643,-0.902173913,6.336956522,-6.706521739,257.8931298,50.87022901,-17.57251908
306894.6533,-0.260869565,5.97826087,-6.184782609,210,43.05343511,8.732824427
306914.6423,0.804347826,5.576086957,-5.336956522,151.8320611,27.02290076,15.49618321
306934.6313,1.402173913,3.913043478,-4.77173913,115.8015267,9.099236641,7.374045802
306954.6204,1.043478261,3.086956522,-5.369565217,99.34351145,-6.717557252,-11.9389313
306974.6094,-0.152173913,2.597826087,-5.5,97.26717557,-5.236641221,-24.03053435
306994.5984,-0.130434783,2.282608696,-6.804347826,123.9694656,11.64885496,-31.86259542
307014.5874,-0.554347826,2.076086957,-7.858695652,130.259542,20.77862595,-35.2519084
307034.5764,-0.195652174,2.02173913,-8.173913043,113.6335878,21.19083969,-28.39694656
307054.5654,0.119565217,2.489130435,-7.793478261,72.58015267,21.72519084,-27.11450382
307074.5544,0.239130435,1.467391304,-6.913043478,50.47328244,17.41984733,-28.18320611
307094.5435,0.326086957,0.260869565,-6.445652174,42.50381679,-6.183206107,-31.23664122
307114.5325,-0.369565217,-0.086956522,-6.413043478,48.59541985,-15.95419847,-32.90076336
307134.5215,-0.684782609,0.097826087,-7.152173913,38.51908397,-16.04580153,-30.6870229
307154.5105,-0.663043478,0.576086957,-7.489130435,17.32824427,-10.54961832,-25.03816794
307174.4995,-0.673913043,1.402173913,-7.5,-3.221374046,-12.27480916,-14.38167939
307194.4885,-0.445652174,1.847826087,-7.163043478,-18.87022901,-18.61068702,-0.900763359
307214.4775,0.358695652,2,-7.369565217,-29.35877863,-25.49618321,13.34351145
307234.4666,0.717391304,1.923913043,-7.695652174,-44.67175573,-23.63358779,22.83969466
307254.4556,1.086956522,1.684782609,-7.77173913,-59.38931298,-14.18320611,26.73282443
307274.4446,0.663043478,1.304347826,-7.532608696,-71.03816794,-8.916030534,25.00763359
307294.4336,0.456521739,1.304347826,-7.413043478,-77.32824427,-5.633587786,28.18320611
307314.4226,0.663043478,1.77173913,-7.47826087,-83.95419847,-1.160305344,30.29007634
307334.4116,1.141304348,2.184782609,-7.326086957,-91.61832061,9.221374046,31.72519084
307354.4006,1.163043478,2.619565217,-6.619565217,-98.70229008,16.32061069,31.61832061
307374.3896,1.163043478,3.065217391,-6.173913043,-103.2977099,20.80916031,32.71755725
307394.3787,0.934782609,3.902173913,-5.891304348,-104.4274809,21.92366412,34.51908397
307414.3677,1.260869565,4.22826087,-6.119565217,-108.0152672,21.4351145,35.61832061
307434.3567,1.456521739,4.641304348,-6.576086957,-115.8625954,21.09923664,35.02290076
307454.3457,1.315217391,4.836956522,-6.576086957,-123.4503817,23.92366412,33.54198473
307474.3347,1.152173913,5.22826087,-6.304347826,-129.5419847,28.44274809,33.46564885
307494.3237,1.130434783,5.260869565,-6.347826087,-133.0381679,29.35877863,31.26717557
307514.3127,0.760869565,5.402173913,-6.641304348,-130.7938931,22.58015267,28.29007634
307534.3018,0.054347826,5.673913043,-6.945652174,-122.1984733,15.48091603,27.11450382
307554.2908,-0.304347826,5.913043478,-7.608695652,-116.9770992,11.00763359,27.45038168
307574.2798,-0.010869565,6.206521739,-7.72826087,-120.3816794,11.48091603,26.45801527
307594.2688,0.380434783,6.815217391,-7.826086957,-118.4427481,6.946564885,24.53435115
307614.2578,0.576086957,7.326086957,-7.945652174,-113.1908397,-1.816793893,23.83206107
307634.2468,0.576086957,7.510869565,-7.826086957,-109.6793893,-7.328244275,24.29007634
307654.2358,0.858695652,8.108695652,-6.760869565,-112.2442748,-6.106870229,27.38931298
307674.2249,1.532608696,8.391304348,-5.77173913,-116.1679389,-0.229007634,31.4351145
307694.2139,1.815217391,8.989130435,-5.152173913,-118.3816794,2.900763359,30.88549618
307714.2029,1.619565217,9.576086957,-4.5,-122.5343511,-1.053435115,31.34351145
307734.1919,1.793478261,10.11956522,-3.826086957,-130.2137405,-7.251908397,31.60305344
307754.1809,2.097826087,10.84782609,-3.608695652,-145.8931298,-12.38167939,32.71755725
307774.1699,2.413043478,10.77173913,-3.108695652,-163.5877863,-12.93129771,34.03053435
307794.1589,2.5,11.20652174,-2.641304348,-178.3969466,-9.648854962,32.44274809
307814.1479,2.217391304,10.27173913,-2.25,-193.3740458,-7.603053435,31.28244275
307834.137,2.010869565,10.02173913,-1.206521739,-204.6259542,-4.519083969,32.76335878
307854.126,1.760869565,9.782608696,-0.315217391,-193.1908397,-2.061068702,35.52671756
307874.115,1.543478261,9.195652174,-0.141304348,-161.6030534,5.954198473,32.09160305
307894.104,1.858695652,9.673913043,0.184782609,-127.0076336,10.03053435,29.72519084
307914.093,1.880434783,10.0326087,0.510869565,-118.4580153,10.1221374,27.61832061
307934.082,1.934782609,10.11956522,0.815217391,-102.7938931,9.832061069,23.05343511
307954.071,1.717391304,10.22826087,1.130434783,-100.1679389,8.488549618,20.01526718
307974.0601,1.619565217,10.2826087,1.75,-83.54198473,7.572519084,18.77862595
307994.0491,1.945652174,11.25,1.891304348,-70.79389313,4,18.04580153
308014.0381,2.510869565,11.92391304,2.054347826,-67.78625954,0.366412214,18.93129771
308034.0271,2.989130435,12.04347826,2.27173913,-70.71755725,-1.633587786,17.4351145
308054.0161,3.043478261,12.16304348,2.760869565,-74.82442748,-2.580152672,17.46564885
308074.0051,3.043478261,12.16304348,2.739130435,-64.33587786,-1.282442748,18.5648855
308093.9941,3.065217391,12.52173913,2.739130435,-66.53435115,-1.267175573,22.30534351
308113.9832,3.206521739,11.94565217,2.77173913,-63.08396947,1.06870229,23.81679389
308133.9722,3.434782609,11.43478261,3.054347826,-61.86259542,1.740458015,23.49618321
308153.9612,3.597826087,10.95652174,3.467391304,-48.47328244,-0.320610687,21.78625954
308173.9502,3.652173913,10.66304348,3.358695652,-32.58015267,-4.702290076,18.93129771
308193.9392,3.652173913,10.55434783,2.902173913,-17.11450382,-1.755725191,15.3129771
308213.9282,3.391304348,10.83695652,2.673913043,-14.58015267,3.679389313,11.34351145
308233.9172,3.054347826,10.73913043,3.217391304,-15.75572519,5.893129771,10.0610687
308253.9063,2.97826087,10.18478261,3.706521739,-12.61068702,3.679389313,9.465648855
308273.8953,3,9.673913043,3.804347826,-6,0.916030534,8.091603053
308293.8843,3.119565217,9.565217391,3.695652174,-2.732824427,0.564885496,6.366412214
308313.8733,3.315217391,9.869565217,3.630434783,-1.145038168,1.526717557,4.244274809
308333.8623,3.423913043,10.14130435,3.586956522,-1.236641221,3.175572519,2.79389313
308353.8513,3.565217391,10.19565217,3.934782609,-1.969465649,4.41221374,3.06870229
308373.8403,3.663043478,10.07608696,4.076086957,0.977099237,5.679389313,2.702290076
308393.8293,3.554347826,10.27173913,3.97826087,2,5.160305344,2.183206107
308413.8184,3.543478261,10.65217391,3.826086957,1.435114504,4.396946565,2.198473282
308433.8074,3.576086957,10.80434783,3.576086957,-3.358778626,5.435114504,2.106870229
308453.7964,3.52173913,11.10869565,3.489130435,-9.160305344,7.053435115,0.885496183
308473.7854,3.532608696,11.35869565,3.532608696,-10.54961832,7.190839695,-1.236641221
308493.7744,3.597826087,11.35869565,3.434782609,-12.16793893,8.916030534,-2.549618321
308513.7634,3.369565217,11.38043478,3.413043478,-10.83969466,12.1221374,-3.969465649
308533.7524,2.989130435,11.34782609,3.380434783,-11.20610687,12.19847328,-5.877862595
308553.7415,2.815217391,11.23913043,3.456521739,-7.435114504,8.244274809,-7.541984733
308573.7305,2.97826087,11.2173913,3.586956522,-0.351145038,1.557251908,-9.007633588
308593.7195,3.282608696,10.97826087,3.663043478,13.17557252,-1.129770992,-9.755725191
308613.7085,3.076086957,10.91304348,3.434782609,22.79389313,-1.938931298,-11.58778626
308633.6975,2.75,11.14130435,3.423913043,22.48854962,-3.007633588,-12.38167939
308653.6865,2.739130435,11.13043478,3.423913043,21.12977099,-5.114503817,-13.11450382
308673.6755,2.923913043,10.91304348,3.630434783,24.48854962,-9.435114504,-13.41984733
308693.6646,3.369565217,11.18478261,3.554347826,28.04580153,-12.50381679,-12.01526718
308713.6536,3.673913043,11.2173913,3.413043478,30.19847328,-11.67938931,-9.435114504
308733.6426,3.956521739,11.19565217,3.260869565,29.19083969,-8.366412214,-5.34351145
308753.6316,3.97826087,11.05434783,3.206521739,26.39694656,-4.320610687,-3.221374046
308773.6206,3.304347826,10.80434783,2.934782609,32.88549618,-5.72519084,-7.801526718
308793.6096,2.913043478,10.82608696,2.663043478,34.16793893,-3.480916031,-9.694656489
308813.5986,2.586956522,10.82608696,2.293478261,33.3129771,-0.549618321,-10.30534351
308833.5876,2.47826087,10.44565217,2.010869565,39.32824427,3.450381679,-10.67175573
308853.5767,2.532608696,10.33695652,1.543478261,44.88549618,6.503816794,-11.06870229
308873.5657,2.510869565,10.29347826,1.489130435,58.47328244,6.427480916,-13.55725191
308893.5547,2.456521739,10.36956522,1.217391304,67.03816794,5.083969466,-15.61832061
308913.5437,2.304347826,10.40217391,1.054347826,72.42748092,2.534351145,-17.3740458
308933.5327,2.163043478,10.67391304,1.141304348,74.5648855,1.34351145,-16.22900763
308953.5217,2.097826087,10.80434783,1.152173913,73.20610687,3.251908397,-13.78625954
308973.5107,2.22826087,11.11956522,0.967391304,76.59541985,7.58778626,-12.41221374
308993.4998,2.358695652,11.22826087,0.77173913,69.55725191,10.29007634,-13.60305344
309013.4888,2.25,11.16304348,0.673913043,60.24427481,8.091603053,-15.41984733
309033.4778,2.282608696,11.19565217,0.684782609,53.4351145,5.267175573,-14.19847328
309053.4668,2.326086957,11.30434783,0.619565217,49.48091603,4.610687023,-11.69465649
309073.4558,2.358695652,11.19565217,0.25,48.0610687,4.366412214,-10.6259542
309093.4448,2.467391304,11.19565217,-0.119565217,40.47328244,4.977099237,-8.564885496
309113.4338,2.510869565,11.01086957,-0.369565217,33.26717557,5.770992366,-7.847328244
309133.4229,2.358695652,10.84782609,-0.554347826,26.93129771,4.045801527,-7.34351145
309153.4119,2.152173913,10.84782609,-0.630434783,25.86259542,3.221374046,-7.267175573
309173.4009,2.054347826,10.7826087,-0.695652174,24.79389313,2.320610687,-6.839694656
309193.3899,2.02173913,10.68478261,-0.782608696,23.32824427,2.061068702,-6.305343511
309213.3789,2.010869565,10.64130435,-0.804347826,21.48091603,1.770992366,-5.633587786
309233.3679,2.043478261,10.5326087,-0.75,18.76335878,1.86259542,-5.129770992
309253.3569,2.141304348,10.35869565,-0.72826087,17.75572519,1.06870229,-4.351145038
309273.3459,2.510869565,10.17391304,-0.717391304,25.54198473,4.900763359,-5.282442748
309293.335,2.152173913,10.5,-0.717391304,21.84732824,1.664122137,-6.198473282
309313.324,2.097826087,10.4673913,-1.02173913,18.18320611,-1.297709924,-7.221374046
309333.313,1.989130435,10.32608696,-1.076086957,11.74045802,0.564885496,-6.167938931
309353.302,1.913043478,10.32608696,-1.163043478,10.03053435,1.709923664,-4.717557252
309373.291,1.858695652,10.20652174,-1.304347826,9.221374046,-0.473282443,-3.465648855
309393.28,1.891304348,10.11956522,-1.173913043,10.0610687,-0.687022901,-3.236641221
309413.269,1.826086957,10.10869565,-1.02173913,10.30534351,1.06870229,-2.381679389
309433.2581,1.782608696,10.20652174,-1.141304348,10.82442748,2.473282443,-1.328244275
309453.2471,1.684782609,10.51086957,-1.293478261,6.27480916,0.870229008,0.427480916
309473.2361,1.804347826,10.64130435,-1.315217391,-1.908396947,-0.381679389,2.229007634
309493.2251,1.880434783,10.65217391,-1.206521739,-5.435114504,0.595419847,2.167938931
309513.2141,1.913043478,10.72826087,-1.097826087,-7.099236641,1.938931298,1.709923664
309533.2031,1.956521739,10.79347826,-1.086956522,-8.458015267,1.755725191,1.282442748
309553.1921,2.043478261,10.69565217,-0.934782609,-9.465648855,0.641221374,1.618320611
309573.1812,2.130434783,10.52173913,-0.880434783,-8.244274809,-0.41221374,1.603053435
309593.1702,2.217391304,10.60869565,-0.923913043,-6.030534351,-0.015267176,1.572519084
309613.1592,2.195652174,10.61956522,-0.945652174,-4.152671756,0.076335878,1.389312977
309633.1482,2.141304348,10.65217391,-1.086956522,-4.015267176,0.458015267,1.190839695
309653.1372,2.076086957,10.56521739,-1.119565217,-5.58778626,0.992366412,0.305343511
309673.1262,2.010869565,10.35869565,-1.02173913,-6.534351145,1.312977099,-0.671755725
309693.1152,2,10.22826087,-0.869565217,-4.442748092,1.694656489,-1.770992366
309713.1042,1.956521739,10.26086957,-0.826086957,-1.984732824,1.847328244,-2.183206107
309733.0933,1.902173913,10.36956522,-0.880434783,-1.664122137,1.786259542,-1.938931298
309753.0823,1.913043478,10.41304348,-0.826086957,-1.893129771,1.832061069,-1.709923664
309773.0713,1.956521739,10.44565217,-0.75,-2.305343511,1.923664122,-1.694656489
309793.0603,1.956521739,10.45652174,-0.72826087,-1.694656489,2.091603053,-1.20610687
309813.0493,1.967391304,10.43478261,-0.72826087,-0.870229008,1.86259542,-1.236641221
309833.0383,1.989130435,10.51086957,-0.880434783,0.427480916,1.572519084,-1.312977099
309853.0273,2,10.60869565,-1,0.290076336,1.236641221,-1.877862595
309873.0164,1.934782609,10.66304348,-1.032608696,0.290076336,0.671755725,-1.938931298
309893.0054,1.847826087,10.7173913,-1.032608696,0,0.122137405,-1.312977099
309912.9944,2,10.69565217,-0.934782609,-3.786259542,-1.175572519,-0.366412214
309932.9834,1.967391304,10.44565217,-0.880434783,-4.320610687,-0.580152672,-0.122137405
309952.9724,1.97826087,10.5,-0.956521739,-4.244274809,0.687022901,-0.702290076
309972.9614,1.934782609,10.4673913,-0.934782609,-3.557251908,1.511450382,-1.221374046
309992.9504,1.891304348,10.47826087,-0.847826087,-3.083969466,2.442748092,-1.06870229
310012.9395,1.967391304,10.4673913,-0.804347826,-2.244274809,2.458015267,-1.267175573
310032.9285,1.956521739,10.55434783,-0.75,-0.992366412,2.488549618,-1.099236641
310052.9175,1.891304348,10.51086957,-0.760869565,-0.549618321,2,-1.06870229
310072.9065,1.869565217,10.54347826,-0.782608696,0.916030534,2.015267176,-1.435114504
310092.8955,1.793478261,10.59782609,-0.836956522,0.320610687,2.076335878,-1.58778626
310112.8845,1.793478261,10.5326087,-0.891304348,0.076335878,1.908396947,-1.221374046
310132.8735,1.760869565,10.42391304,-0.967391304,-0.320610687,1.389312977,-1.145038168
310152.8625,1.869565217,10.44565217,-1,-0.549618321,1.908396947,-1.312977099
310172.8516,1.902173913,10.45652174,-1.032608696,1.251908397,2.625954198,-1.236641221
310192.8406,1.97826087,10.13043478,-0.97826087,5.679389313,2.870229008,-0.259541985
310212.8296,1.934782609,10.42391304,-0.97826087,0.503816794,2.305343511,-1.267175573
310232.8186,1.869565217,10.42391304,-0.826086957,0.946564885,2.122137405,-1.34351145
310252.8076,1.826086957,10.34782609,-0.673913043,2.595419847,2.045801527,-1.145038168
310272.7966,1.804347826,10.36956522,-0.576086957,5.770992366,1.328244275,-1.114503817
310292.7856,1.826086957,10.35869565,-0.72826087,8.030534351,1.083969466,-1.236641221
310312.7747,1.815217391,10.48913043,-0.945652174,7.58778626,1.282442748,-1.86259542
310332.7637,1.739130435,10.66304348,-1.054347826,5.465648855,1.648854962,-2.854961832
310352.7527,1.75,10.64130435,-1,6.534351145,1.404580153,-4.122137405
310372.7417,1.847826087,10.7173913,-1.152173913,7.450381679,-1.160305344,-5.007633588
310392.7307,1.923913043,10.75,-1.086956522,5.511450382,-4.122137405,-4.79389313
310412.7197,2.043478261,10.67391304,-1.152173913,3.511450382,-5.541984733,-4.122137405
310432.7087,2.141304348,10.67391304,-1.141304348,4.076335878,-5.786259542,-3.877862595
310452.6978,1.97826087,10.65217391,-1.173913043,6.396946565,-5.221374046,-3.465648855
310472.6868,1.836956522,10.60869565,-1.22826087,7.694656489,-4.229007634,-3.648854962
310492.6758,1.75,10.55434783,-1.217391304,7.083969466,-2.580152672,-3.877862595
310512.6648,1.663043478,10.51086957,-1.076086957,7.755725191,-1.007633588,-4.41221374
310532.6538,1.52173913,10.43478261,-1.010869565,8.381679389,0.183206107,-4.79389313
310552.6428,1.347826087,10.58695652,-1.239130435,5.190839695,1.633587786,-4.625954198
310572.6318,1.239130435,10.58695652,-1.336956522,-0.580152672,2.732824427,-2.549618321
310592.6208,1.597826087,10.45652174,-1.380434783,-5.129770992,3.86259542,-0.564885496
310612.6099,1.673913043,10.17391304,-1.27173913,-8.167938931,2.854961832,0.091603053
310632.5989,1.72826087,9.989130435,-1.173913043,-9.86259542,0.320610687,-1.129770992
310652.5879,1.847826087,9.760869565,-1.054347826,-9.664122137,-1.633587786,-1.847328244
310672.5769,1.75,9.608695652,-1.065217391,-9.511450382,-3.053435115,-0.641221374
310692.5659,1.576086957,9.619565217,-1.27173913,-10.58015267,-7.022900763,-0.183206107
310712.5549,1.47826087,9.641304348,-1.402173913,-12.59541985,-12.18320611,-0.213740458
310732.5439,1.445652174,9.858695652,-1.510869565,-11.80152672,-15.06870229,0.076335878
310752.533,1.576086957,10.30434783,-1.706521739,-11.54198473,-14.54961832,-0.305343511
310772.522,1.641304348,10.59782609,-1.706521739,-13.3129771,-13.80152672,0.427480916
310792.511,1.652173913,10.89130435,-1.543478261,-17.22137405,-11.61832061,3.190839695
310812.5,1.782608696,10.86956522,-0.945652174,-20.99236641,-8.259541985,7.083969466
310832.489,1.934782609,10.84782609,-0.315217391,-17.03816794,-3.58778626,8.809160305
310852.478,1.891304348,10.85869565,0.010869565,-9.099236641,0.580152672,8.427480916
310872.467,1.826086957,10.98913043,-0.076086957,-3.633587786,3.664122137,6.748091603
310892.4561,1.891304348,11.10869565,-0.097826087,-2,4.977099237,6.961832061
310912.4451,1.760869565,11.11956522,-0.163043478,-1.664122137,7.679389313,7.114503817
310932.4341,1.619565217,11.13043478,-0.282608696,0.519083969,11.80152672,8.045801527
310952.4231,1.576086957,10.89130435,-0.293478261,3.877862595,16.77862595,8.824427481
310972.4121,1.565217391,10.56521739,-0.347826087,8.442748092,20.44274809,10.6259542
310992.4011,1.586956522,10.5,-0.597826087,12.82442748,21.00763359,13.35877863
311012.3901,1.576086957,10.43478261,-0.739130435,14.32061069,19.57251908,17.9389313
311032.3792,1.739130435,10.45652174,-0.913043478,16.58015267,21.32824427,23.90839695
311052.3682,2.108695652,10.39130435,-0.923913043,17.3129771,27.03816794,30.53435115
311072.3572,2.608695652,10.23913043,-0.836956522,22.59541985,32.5648855,32.07633588
311092.3462,2.652173913,9.989130435,-0.869565217,24.70229008,40.70229008,29.8778626
311112.3352,2.184782609,9.695652174,-0.706521739,30.38167939,44.5648855,28.76335878
311132.3242,1.815217391,9.717391304,-0.576086957,44.18320611,45.48091603,29.84732824
311152.3132,1.695652174,9.902173913,-0.782608696,53.02290076,42.77862595,28.33587786
311172.3022,1.673913043,10.34782609,-0.956521739,51.86259542,41.28244275,26.15267176
311192.2913,1.902173913,10.60869565,-1.076086957,41.4351145,43.38931298,23.02290076
311212.2803,2.02173913,10.63043478,-1.076086957,34.38167939,41.74045802,21.48091603
311232.2693,2.293478261,10.43478261,-1.206521739,30.5648855,36.83969466,20.51908397
311252.2583,2.304347826,10.34782609,-1.510869565,32.87022901,26.91603053,21.77099237
311272.2473,2.717391304,10.30434783,-1.923913043,38.96183206,16.6870229,25.49618321
311292.2363,3.25,10.31521739,-2.25,34.44274809,8.045801527,30.21374046
311312.2253,3.652173913,10.09782609,-2.423913043,33.89312977,3.618320611,35.35877863
311332.2144,4.02173913,9.956521739,-2.576086957,40.58015267,1.190839695,41.66412214
311352.2034,4.456521739,9.510869565,-2.72826087,46.09160305,5.664122137,47.28244275
311372.1924,5.043478261,9.239130435,-2.695652174,50.50381679,13.03816794,50.47328244
311392.1814,5.097826087,9.282608696,-2.25,52.30534351,16.42748092,49.86259542
311412.1704,4.565217391,9.576086957,-2.22826087,56.32061069,17.17557252,50.0610687
311432.1594,4.27173913,9.717391304,-2.630434783,60.65648855,16.45801527,49.64885496
311452.1484,4.413043478,9.434782609,-2.717391304,57.83206107,12.10687023,46.33587786
311472.1375,4.554347826,9.25,-3.086956522,50.24427481,11.9389313,43.3740458
311492.1265,4.510869565,9.097826087,-3.576086957,44.7480916,18.41221374,38.94656489
311512.1155,4.413043478,8.891304348,-3.760869565,38.70229008,17.51145038,34.27480916
311532.1045,4.597826087,8.282608696,-3.5,33.67938931,9.099236641,30.90076336
311552.0935,4.695652174,8.032608696,-3.456521739,34.10687023,0.671755725,32.71755725
311572.0825,5,7.72826087,-3.402173913,33.23664122,-2.458015267,33.96946565
311592.0715,5.282608696,7.739130435,-3.52173913,28.07633588,-1.419847328,34.73282443
311612.0605,5.369565217,7.75,-3.52173913,27.3740458,1.251908397,34.67175573
311632.0496,5.402173913,7.684782609,-3.902173913,29.66412214,0.641221374,35.09923664
311652.0386,5.532608696,7.608695652,-4.076086957,34.04580153,-0.854961832,37.45038168
311672.0276,5.717391304,7.576086957,-3.956521739,43.19083969,2.305343511,38.03053435
311692.0166,5.989130435,7.565217391,-3.826086957,50.47328244,17.12977099,36.04580153
311712.0056,6.358695652,7.326086957,-4.043478261,53.35877863,28.71755725,34.90076336
311731.9946,6.619565217,7.413043478,-4.076086957,53.83206107,26.21374046,30.97709924
311751.9836,6.25,7.565217391,-4.347826087,57.16030534,34.99236641,32.94656489
311771.9727,6.336956522,7.445652174,-4.543478261,57.03816794,42.24427481,32.82442748
311791.9617,6.119565217,7.260869565,-4.619565217,56.54961832,46,35.66412214
311811.9507,5.989130435,7.097826087,-5.010869565,56.85496183,48.6870229,33.96946565
311831.9397,6.25,7.173913043,-5.097826087,51.95419847,52.16793893,31.61832061
311851.9287,6.347826087,6.989130435,-5.086956522,44.88549618,54.77862595,29.46564885
311871.9177,6.423913043,6.684782609,-5.152173913,41.45038168,61.52671756,29.52671756
311891.9067,6.565217391,6.489130435,-4.673913043,40.59541985,66.73282443,32.29007634
311911.8958,6.586956522,6.163043478,-3.880434783,41.90839695,67.48091603,31.38931298
311931.8848,6.358695652,5.956521739,-4.315217391,29.95419847,61.92366412,17.32824427
311951.8738,6.173913043,5.695652174,-4.630434783,4.27480916,60.39694656,9.770992366
311971.8628,6.217391304,5.695652174,-4.02173913,-16.71755725,57.78625954,11.83206107
311991.8518,6.804347826,5.565217391,-3.141304348,-27.08396947,50.15267176,16.22900763
312011.8408,7.510869565,5.641304348,-2.782608696,-21.83206107,39.14503817,20.03053435
312031.8298,7.945652174,5.27173913,-3.782608696,-26.29007634,38.96183206,19.83206107
312051.8188,8.163043478,4.739130435,-4.141304348,-42.61068702,47.09923664,18.21374046
312071.8079,8.260869565,4.434782609,-3.576086957,-59.51145038,58.03053435,18.24427481
312091.7969,8.47826087,4.510869565,-2.836956522,-65.51145038,66.51908397,15.35877863
312111.7859,8.641304348,4.836956522,-2.5,-72.0610687,72.27480916,10.6259542
312131.7749,8.543478261,5.163043478,-2.163043478,-80.13740458,81.63358779,5.893129771
312151.7639,8.47826087,5.739130435,-2.010869565,-93.92366412,89.28244275,-0.015267176
312171.7529,8.684782609,5.434782609,-1.956521739,-101.480916,97.64885496,0.290076336
312191.7419,9.152173913,5.847826087,-1.804347826,-101.5725191,100.1679389,1.954198473
312211.731,9.010869565,6.239130435,-1.706521739,-114.0305344,100.5038168,9.007633588
312231.72,8.760869565,5.72826087,-0.304347826,-120.0916031,98.90076336,12.99236641
312251.709,9.032608696,5.282608696,0.434782609,-84.45801527,89.86259542,14.73282443
312271.698,9.923913043,5.402173913,0.217391304,-59.28244275,84.50381679,10.96183206
312291.687,9.934782609,5.913043478,0.652173913,-67.84732824,79.3740458,5.603053435
312311.676,10.13043478,6.880434783,1.641304348,-75.12977099,82.90076336,8.748091603
312331.665,11.08695652,7.097826087,1.652173913,-74.5648855,89.69465649,16.27480916
312351.6541,11.5,6.641304348,1.836956522,-80.45801527,95.20610687,19.95419847
312371.6431,11.55434783,6.5,2.413043478,-81.66412214,94.99236641,21.06870229
312391.6321,10.88043478,7,2.72826087,-74.96183206,88.71755725,24.5648855
312411.6211,10.19565217,7.315217391,2.391304348,-73.26717557,85.48091603,27.14503817
312431.6101,10.02173913,7.304347826,2.5,-83.14503817,84.21374046,27.96946565
312451.5991,9.630434783,7.445652174,3.673913043,-104.0458015,76.58015267,26.1221374
312471.5881,9.010869565,6.402173913,4.097826087,-87.8778626,71.06870229,23.45038168
312491.5771,9,5.934782609,3.489130435,-57.77099237,63.83206107,20.16793893
312511.5662,8.945652174,6.141304348,3.217391304,-54.07633588,57.32824427,11.63358779
312531.5552,8.880434783,6.423913043,3.967391304,-52.44274809,48.41221374,8.519083969
312551.5442,8.597826087,6.847826087,4.717391304,-40.41221374,39.9389313,8.65648855
312571.5332,8.75,6.282608696,4.836956522,-27.54198473,33.95419847,10.6870229
312591.5222,9.22826087,5.706521739,5.315217391,-26.44274809,26.04580153,7.496183206
312611.5112,9.47826087,5.423913043,6,-18.50381679,17.3129771,8.549618321
312631.5002,9.445652174,5.597826087,6.097826087,-7.236641221,9.633587786,8.396946565
312651.4893,9.467391304,5.423913043,5.684782609,1.145038168,5.801526718,6.93129771
312671.4783,9.554347826,5.25,5.72826087,-5.58778626,3.404580153,1.664122137
312691.4673,9.510869565,5.043478261,6.206521739,-12.65648855,1.282442748,-1.083969466
312711.4563,9.358695652,5.010869565,6.260869565,-4.167938931,-9.496183206,-8.778625954
312731.4453,9.75,5.119565217,5.717391304,-5.419847328,-9.969465649,-11.09923664
312751.4343,9.97826087,4.967391304,5.108695652,-4.748091603,-3.770992366,-15.17557252
312771.4233,9.47826087,4.923913043,4.989130435,-8.885496183,-1.923664122,-17.32824427
312791.4124,9.532608696,5.27173913,5.77173913,-11.63358779,-8.045801527,-15.98473282
312811.4014,9.25,5.72826087,5.836956522,-16.04580153,-20.44274809,-11.23664122
312831.3904,9.706521739,5.869565217,5.543478261,-17.11450382,-20.5648855,-10.53435115
312851.3794,10.66304348,5.793478261,4.989130435,-22.24427481,-1.435114504,-13.74045802
312871.3684,11.26086957,6.054347826,4.630434783,-38.0610687,23.11450382,-12.25954198
312891.3574,10.72826087,5.869565217,4.489130435,-40.77862595,17.81679389,-1.923664122
312911.3464,10,6.130434783,5.456521739,-43.77099237,-0.79389313,6.27480916
312931.3354,9.369565217,5.891304348,5.467391304,-24.59541985,-28,16.03053435
312951.3245,9.836956522,6.380434783,5.032608696,-16.13740458,-30.70229008,25.77099237
312971.3135,10.09782609,6.510869565,4.260869565,-23.14503817,-7.633587786,24.97709924
312991.3025,10,6.326086957,3.913043478,-39.11450382,13.61832061,20.76335878
313011.2915,9.880434783,6.510869565,4.195652174,-56.30534351,24.48854962,15.40458015
313031.2805,9.706521739,6.239130435,4.695652174,-62.51908397,19.2519084,11.4351145
313051.2695,9.141304348,5.72826087,4.826086957,-41.83206107,6.076335878,7.694656489
313071.2585,8.956521739,5.554347826,4.902173913,-29.55725191,5.053435115,8.198473282
313091.2476,9.326086957,5.47826087,5.065217391,-35.57251908,16.61068702,10.42748092
313111.2366,9.630434783,5.293478261,5.152173913,-40.97709924,22.51908397,11.77099237
313131.2256,9.836956522,5.076086957,5.27173913,-37.78625954,15.28244275,7.816793893
313151.2146,9.880434783,5.043478261,5.304347826,-24.33587786,3.557251908,4.717557252
313171.2036,9.576086957,4.934782609,5.684782609,-17.78625954,-4.702290076,8.366412214
313191.1926,9.880434783,4.706521739,5.717391304,-18.38167939,-0.229007634,11.35877863
313211.1816,10.11956522,4.510869565,5.826086957,-18.09160305,7.404580153,12.18320611
313231.1707,9.869565217,4.336956522,5.72826087,-12.64122137,12.50381679,10.35114504
313251.1597,9.793478261,4.684782609,5.25,-10.04580153,14.6870229,3.114503817
313271.1487,9.72826087,4.836956522,5.456521739,-31.64885496,14.90076336,-10.41221374
313291.1377,9.891304348,4.967391304,5.782608696,-39.48091603,17.32824427,11.74045802
313311.1267,-5.923913043,1.902173913,7.565217391,-315.2824427,24.30534351,-162.610687
313331.1157,6.641304348,2.184782609,7.652173913,-371.6183206,-54.38167939,82.03053435
313351.1047,16.08695652,-2.326086957,10.08695652,-152.5343511,49.17557252,1.465648855
313371.0938,11.58695652,-0.173913043,3.706521739,85.67938931,2.229007634,-65.45038168
313391.0828,8.043478261,3.195652174,6.532608696,173.648855,-67.61832061,-38.82442748
313411.0718,9.010869565,4.717391304,7.804347826,92.67175573,-53.63358779,-12
313431.0608,8.782608696,3.358695652,6.467391304,27.96946565,-2.610687023,6.351145038
313451.0498,9.739130435,2.739130435,5.315217391,3.328244275,51.17557252,8.305343511
313471.0388,10.47826087,2.586956522,5.934782609,51.77099237,53.70992366,10.44274809
313491.0278,10.44565217,3.336956522,6.543478261,40.33587786,56.58015267,7.58778626
313511.0168,10.75,5.760869565,6.858695652,-6.534351145,64.70229008,11.80152672
313531.0059,9.902173913,3.684782609,7.043478261,-64,75.57251908,13.78625954
313550.9949,8.543478261,1.77173913,7.369565217,-10.76335878,37.92366412,4.427480916
313570.9839,8.967391304,2.456521739,7.22826087,16.61068702,37.41984733,3.893129771
313590.9729,8.989130435,3.184782609,7.195652174,19.83206107,27.14503817,2.595419847
313610.9619,8.956521739,3.804347826,7.369565217,11.66412214,18.0610687,-0.992366412
313630.9509,8.27173913,3.97826087,7.902173913,4.778625954,12.51908397,-0.244274809
313650.9399,8.108695652,3.891304348,8.054347826,-4.625954198,6.854961832,2.427480916
313670.929,8.641304348,3.673913043,7.630434783,-2.045801527,8.93129771,2.961832061
313690.918,9.163043478,3.206521739,6.858695652,3.511450382,29.02290076,0.015267176
313710.907,8.72826087,3.847826087,7.065217391,-0.030534351,25.51145038,0.335877863
313730.896,8.065217391,4.152173913,7.293478261,-12.07633588,18.10687023,-3.114503817
313750.885,9.663043478,4.054347826,7.119565217,-29.61832061,7.236641221,3.480916031
313770.874,9.02173913,2.510869565,8.956521739,-11.46564885,-2.442748092,-0.763358779
313790.863,9.706521739,2.826086957,8.456521739,7.297709924,12.21374046,5.34351145
313810.8521,9.086956522,3.858695652,7.97826087,19.05343511,21.3129771,0.366412214
313830.8411,9.097826087,3.586956522,7.641304348,17.81679389,28.39694656,-1.435114504
313850.8301,8.652173913,3.173913043,8.163043478,22.80916031,16.53435115,-2.320610687
313870.8191,8.673913043,3.119565217,8.076086957,25.66412214,11.29770992,-2.396946565
313890.8081,8.108695652,3.489130435,8.326086957,21.16030534,-1.832061069,1.740458015
313910.7971,8.043478261,3.445652174,7.836956522,13.74045802,-3.480916031,2.41221374
313930.7861,8.108695652,3.663043478,8.010869565,8.79389313,-9.618320611,3.58778626
313950.7751,8.184782609,3.489130435,7.836956522,5.832061069,-5.557251908,4.106870229
313970.7642,8.326086957,3.423913043,7.923913043,4.763358779,-3.251908397,2.259541985
313990.7532,8.445652174,3.5,7.891304348,4.320610687,-5.374045802,0.854961832
314010.7422,8.77173913,3.532608696,7.77173913,3.06870229,-7.72519084,-0.381679389
314030.7312,8.934782609,3.673913043,7.760869565,5.572519084,-10.76335878,-1.572519084
314050.7202,8.934782609,3.793478261,7.673913043,7.297709924,-13.19083969,-1.664122137
314070.7092,8.934782609,3.77173913,7.5,6.671755725,-12.39694656,-1.618320611
314090.6982,9.010869565,3.782608696,7.260869565,6.763358779,-9.832061069,-0.595419847
314110.6873,9.043478261,3.804347826,7.25,3.709923664,-6.671755725,0.702290076
314130.6763,9.097826087,3.793478261,7.097826087,-0.320610687,-4.503816794,1.450381679
314150.6653,9.108695652,3.804347826,7.27173913,-4.305343511,-0.65648855,1.633587786
314170.6543,9.119565217,3.684782609,7.358695652,-4.946564885,3.648854962,1.145038168
314190.6433,9.173913043,3.695652174,7.467391304,-3.755725191,6.854961832,0.015267176
314210.6323,9.195652174,3.739130435,7.52173913,-3.083969466,6.290076336,-0.320610687
314230.6213,9.163043478,3.739130435,7.434782609,-1.786259542,3.053435115,-0.732824427
314250.6104,9.108695652,3.684782609,7.413043478,-1.954198473,2.290076336,-0.717557252
314270.5994,9,3.652173913,7.467391304,-1.86259542,2.702290076,-0.13740458
314290.5884,8.956521739,3.619565217,7.532608696,-1.893129771,5.175572519,-0.13740458
314310.5774,8.902173913,3.652173913,7.489130435,-2.442748092,8.091603053,-0.366412214
314330.5664,8.858695652,3.673913043,7.532608696,-2.488549618,9.694656489,-0.473282443
314350.5554,8.880434783,3.673913043,7.630434783,-2.809160305,10.48854962,-0.458015267
314370.5444,8.836956522,3.630434783,7.717391304,-2.091603053,8.442748092,-0.534351145
314390.5334,8.815217391,3.673913043,7.72826087,-1.72519084,6.030534351,-0.519083969
314410.5225,8.77173913,3.72826087,7.75,-2.473282443,4.519083969,-0.244274809
314430.5115,8.793478261,3.75,7.706521739,-2.061068702,5.251908397,-0.473282443
314450.5005,8.72826087,3.75,7.706521739,-1.923664122,6.564885496,-0.351145038
314470.4895,8.739130435,3.684782609,7.739130435,-1.557251908,7.083969466,-0.259541985
314490.4785,8.793478261,3.739130435,7.804347826,-2.015267176,8.27480916,-0.335877863
314510.4675,8.826086957,3.673913043,7.836956522,-2.458015267,6.717557252,-0.366412214
314530.4565,8.815217391,3.641304348,7.782608696,-1.679389313,4.229007634,-1.053435115
314550.4456,8.804347826,3.641304348,7.739130435,-0.564885496,3.007633588,-1.679389313
314570.4346,8.815217391,3.673913043,7.652173913,-1.190839695,3.145038168,-2.122137405
314590.4236,8.760869565,3.77173913,7.380434783,-4.809160305,6.732824427,-3.603053435
314610.4126,8.489130435,3.836956522,7.043478261,-11.08396947,14.39694656,-3.832061069
314630.4016,8.22826087,3.989130435,7.413043478,-4.091603053,28.48854962,0.320610687
314650.3906,7.847826087,3.663043478,8.326086957,10.61068702,14.91603053,-25.00763359
314670.3796,9.52173913,3.532608696,8.869565217,5.312977099,10.29007634,-14.16793893
314690.3687,9.597826087,3.510869565,7.793478261,5.160305344,-5.694656489,-11.38931298
314710.3577,9.086956522,3.989130435,7.608695652,3.374045802,-21.80152672,-7.72519084
314730.3467,8.826086957,3.836956522,7.815217391,4.13740458,-12.33587786,-6.015267176
314750.3357,8.847826087,3.880434783,8.108695652,5.175572519,-6.122137405,-4
314770.3247,9.02173913,3.913043478,8.02173913,4,-2.671755725,-2.564885496
314790.3137,9.032608696,3.989130435,8,3.603053435,-4.641221374,-0.458015267
314810.3027,8.913043478,4.184782609,7.847826087,-0.122137405,-0.396946565,1.694656489
314830.2917,8.760869565,4.086956522,7.793478261,-1.129770992,2.351145038,2.977099237
314850.2808,8.684782609,3.967391304,7.75,-0.13740458,3.740458015,2.503816794
314870.2698,8.608695652,3.913043478,7.815217391,-1.465648855,3.145038168,2.824427481
314890.2588,8.543478261,3.989130435,7.847826087,-3.328244275,1.801526718,3.679389313
314910.2478,8.630434783,3.902173913,7.75,-4.900763359,2.13740458,3.251908397
314930.2368,8.75,3.913043478,7.684782609,-3.114503817,4.396946565,3.526717557
314950.2258,8.836956522,3.858695652,7.663043478,-2.564885496,7.221374046,3.221374046
314970.2148,8.869565217,3.826086957,7.673913043,-1.740458015,9.419847328,1.847328244
314990.2039,8.804347826,3.77173913,7.77173913,-1.572519084,8.534351145,1.160305344
315010.1929,8.630434783,3.793478261,7.739130435,-0.65648855,7.938931298,0.854961832
315030.1819,8.652173913,3.804347826,7.869565217,-0.748091603,8.824427481,-0.549618321
315050.1709,8.619565217,3.880434783,8.065217391,-1.832061069,7.267175573,-1.908396947
315070.1599,8.706521739,3.826086957,8.108695652,-1.251908397,4.564885496,-2.061068702
315090.1489,8.77173913,3.858695652,8.065217391,-0.442748092,2.79389313,-1.053435115
315110.1379,8.739130435,3.923913043,8.043478261,-0.427480916,3.083969466,-0.106870229
315130.127,8.630434783,3.989130435,8.02173913,-0.732824427,3.297709924,0.641221374
315150.116,8.510869565,3.923913043,8.010869565,-0.809160305,3.007633588,0.580152672
315170.105,8.434782609,3.902173913,8.032608696,-1.083969466,2.396946565,1.053435115
315190.094,8.413043478,3.902173913,7.97826087,-1.526717557,2.045801527,0.65648855
315210.083,8.402173913,3.891304348,7.891304348,-1.404580153,1.893129771,0.366412214
315230.072,8.413043478,3.858695652,7.869565217,-1.06870229,2.244274809,0.351145038
315250.061,8.5,3.826086957,7.923913043,-1.404580153,3.419847328,0.183206107
315270.05,8.597826087,3.826086957,7.923913043,-0.824427481,3.34351145,0.106870229
315290.0391,8.695652174,3.836956522,7.902173913,-0.335877863,2.473282443,0.183206107
315310.0281,8.717391304,3.891304348,7.945652174,0.244274809,2.702290076,0.351145038
315330.0171,8.717391304,3.880434783,8.010869565,0.198473282,2.381679389,0.564885496
315350.0061,8.695652174,3.869565217,8.065217391,0.091603053,2.244274809,0.488549618
315369.9951,8.673913043,3.956521739,8.076086957,0.229007634,1.312977099,0.564885496
315389.9841,8.717391304,3.934782609,7.967391304,-0.625954198,0.854961832,0.488549618
315409.9731,8.684782609,3.934782609,7.956521739,-0.167938931,0.732824427,0.625954198
315429.9622,8.619565217,3.880434783,8,-0.702290076,1.770992366,0.41221374
315449.9512,8.619565217,3.836956522,7.967391304,-1.160305344,2.488549618,0.366412214
315469.9402,8.608695652,3.815217391,7.934782609,-0.977099237,2.854961832,0.366412214
315489.9292,8.554347826,3.815217391,7.956521739,-0.503816794,3.496183206,-0.076335878
315509.9182,8.489130435,3.891304348,7.880434783,-0.366412214,3.480916031,0.305343511
315529.9072,8.5,3.869565217,7.902173913,-1.511450382,2.503816794,0.015267176
315549.8962,8.5,3.923913043,7.793478261,-5.72519084,2.015267176,0.290076336
315569.8853,8.52173913,3.858695652,7.891304348,-8.748091603,-1.969465649,-0.244274809
315589.8743,8.543478261,3.804347826,8.141304348,-8.229007634,-4,-0.580152672
315609.8633,8.52173913,3.75,8.336956522,-4.396946565,-0.961832061,0.671755725
315629.8523,8.52173913,3.793478261,8.119565217,-1.06870229,2.015267176,0.778625954
315649.8413,8.586956522,3.804347826,7.967391304,-0.396946565,2.748091603,0.030534351
315669.8303,8.608695652,3.815217391,8.054347826,-0.351145038,3.06870229,0.320610687
315689.8193,8.652173913,3.793478261,8.097826087,0.732824427,2.335877863,0.335877863
315709.8083,8.597826087,3.869565217,8.086956522,0.732824427,2.351145038,1.022900763
315729.7974,8.565217391,3.815217391,7.97826087,0.961832061,3.022900763,0.65648855
315749.7864,8.565217391,3.760869565,7.97826087,1.114503817,3.633587786,0.427480916
315769.7754,8.608695652,3.782608696,8.010869565,1.511450382,3.908396947,0.229007634
315789.7644,8.619565217,3.815217391,8.010869565,2.488549618,4.183206107,0.519083969
315809.7534,8.554347826,3.847826087,7.967391304,3.312977099,4.198473282,0.41221374
315829.7424,8.510869565,3.847826087,7.989130435,3.114503817,4.381679389,0.534351145
315849.7314,8.489130435,3.858695652,7.989130435,2.961832061,4.534351145,0.122137405
315869.7205,8.467391304,3.891304348,7.989130435,1.816793893,4.27480916,0.13740458
315889.7095,8.47826087,3.902173913,8.043478261,1.572519084,2.549618321,-0.229007634
315909.6985,8.5,3.967391304,8.043478261,1.038167939,2.27480916,0.213740458
315929.6875,8.5,3.923913043,8.119565217,1.190839695,2.229007634,0.030534351
315949.6765,8.532608696,3.934782609,8.097826087,1.541984733,1.58778626,0.045801527
315969.6655,8.576086957,3.945652174,8.065217391,2.015267176,0.870229008,0.13740458
315989.6545,8.565217391,3.902173913,8.043478261,1.221374046,0.442748092,0.213740458
316009.6436,8.532608696,3.902173913,8.02173913,0.778625954,0.748091603,0.396946565
316029.6326,8.532608696,3.815217391,8.065217391,0.213740458,1.267175573,0.580152672
316049.6216,8.5,3.804347826,8.065217391,0.335877863,1.648854962,0.41221374
316069.6106,8.489130435,3.880434783,8.076086957,0.305343511,1.389312977,0.305343511
316089.5996,8.47826087,3.923913043,8.086956522,-0.290076336,1.007633588,0.183206107
316109.5886,8.456521739,3.923913043,8.086956522,-0.106870229,0.916030534,0.27480916
316129.5776,8.467391304,3.913043478,8.054347826,0.427480916,1.282442748,0.198473282
316149.5667,8.47826087,3.945652174,8.043478261,0.244274809,1.86259542,0.335877863
316169.5557,8.510869565,3.913043478,8.043478261,0.198473282,2.106870229,0.366412214
316189.5447,8.532608696,3.902173913,7.989130435,0.320610687,1.755725191,0.076335878
316209.5337,8.543478261,3.902173913,8,0.259541985,1.572519084,0.473282443
316229.5227,8.586956522,3.880434783,8.010869565,0.106870229,1.816793893,0.198473282
316249.5117,8.565217391,3.913043478,8.010869565,-0.13740458,1.541984733,-0.061068702
316269.5007,8.47826087,3.902173913,8.076086957,0.106870229,0.916030534,-0.458015267
316289.4897,8.532608696,3.923913043,8.108695652,0.320610687,0.900763359,-0.519083969
316309.4788,8.576086957,3.902173913,8.130434783,0.427480916,1.404580153,0.045801527
316329.4678,8.586956522,3.956521739,7.945652174,1.022900763,1.755725191,0.167938931
316349.4568,8.52173913,3.967391304,8.065217391,0.503816794,1.526717557,0.366412214
316369.4458,8.47826087,3.880434783,8.097826087,0.167938931,0.503816794,0.091603053
316389.4348,8.456521739,3.858695652,8.02173913,-0.900763359,0.748091603,0.335877863
316409.4238,8.456521739,3.902173913,8.02173913,-1.053435115,1.58778626,0.396946565
316429.4128,8.456521739,3.945652174,8.054347826,-0.885496183,1.312977099,0.916030534
316449.4019,8.456521739,3.934782609,8.043478261,-1.435114504,1.099236641,0.702290076
316469.3909,8.47826087,3.891304348,8,-0.79389313,1.908396947,0.366412214
316489.3799,8.47826087,3.934782609,8.032608696,-0.198473282,3.404580153,0.27480916
316509.3689,8.5,3.934782609,8.076086957,-0.503816794,2.93129771,0.41221374
316529.3579,8.47826087,3.913043478,8.054347826,-0.473282443,1.312977099,0.641221374
316549.3469,8.5,3.836956522,8.054347826,-1.038167939,1.251908397,0.259541985
316569.3359,8.510869565,3.804347826,8.065217391,-1.007633588,2.015267176,0.625954198
316589.325,8.52173913,3.836956522,8.043478261,-0.809160305,2.564885496,0.396946565
316609.314,8.510869565,3.902173913,8.032608696,-0.198473282,2.503816794,0.458015267
316629.303,8.445652174,3.891304348,8.065217391,0.015267176,2.580152672,0.213740458
316649.292,8.423913043,3.989130435,8.097826087,-0.335877863,2.030534351,0.152671756
316669.281,8.456521739,3.97826087,8.119565217,0.091603053,2.564885496,0.091603053
316689.27,8.434782609,3.967391304,8.043478261,-0.061068702,2.473282443,0.167938931
316709.259,8.467391304,3.847826087,8.02173913,-0.564885496,1.893129771,0.13740458
316729.248,8.456521739,3.880434783,8.043478261,-0.625954198,1.633587786,0.015267176
316749.2371,8.47826087,3.858695652,8.010869565,-1.480916031,2.030534351,0.351145038
316769.2261,8.47826087,3.923913043,8.043478261,-1.267175573,2.488549618,0.381679389
316789.2151,8.423913043,3.913043478,8.108695652,-0.473282443,1.832061069,0.427480916
316809.2041,8.391304348,3.934782609,8.130434783,-0.580152672,1.236641221,0.503816794
316829.1931,8.369565217,3.923913043,8.184782609,-0.65648855,0.870229008,0.641221374
316849.1821,8.402173913,3.934782609,8.141304348,-0.427480916,0.79389313,0.641221374
316869.1711,8.423913043,3.923913043,8.108695652,-0.564885496,1.06870229,0.65648855
316889.1602,8.445652174,3.956521739,8.076086957,-0.900763359,1.572519084,0.290076336
316909.1492,8.489130435,3.913043478,8.043478261,-0.900763359,1.526717557,0.045801527
316929.1382,8.5,3.956521739,7.989130435,-0.564885496,1.58778626,0.351145038
316949.1272,8.467391304,3.913043478,8.097826087,-0.229007634,1.251908397,0.305343511
316969.1162,8.489130435,3.934782609,8.086956522,-0.519083969,1.129770992,0.27480916
316989.1052,8.423913043,4.032608696,8.108695652,-0.41221374,1.34351145,0.702290076
317009.0942,8.456521739,3.956521739,8.076086957,-0.442748092,1.938931298,0.625954198
317029.0833,8.489130435,3.913043478,8.119565217,-0.351145038,2.305343511,0.442748092
317049.0723,8.456521739,3.913043478,8.065217391,-0.870229008,2.259541985,0.259541985
317069.0613,8.434782609,3.923913043,8.130434783,-0.610687023,1.633587786,0.229007634
317089.0503,8.434782609,3.913043478,8.163043478,-0.763358779,1.72519084,0.41221374
317109.0393,8.467391304,3.934782609,8.152173913,-0.671755725,2.290076336,0.244274809
317129.0283,8.467391304,3.923913043,8.141304348,-0.79389313,2.030534351,0.442748092
317149.0173,8.467391304,3.913043478,8.163043478,-0.916030534,1.679389313,0.442748092
317169.0063,8.434782609,3.902173913,8.141304348,-1.053435115,1.450381679,0.290076336
317188.9954,8.423913043,3.902173913,8.152173913,-0.778625954,1.221374046,0.213740458
317208.9844,8.456521739,3.934782609,8.130434783,-0.473282443,1.129770992,0.702290076
317228.9734,8.489130435,3.902173913,8.108695652,-0.305343511,0.27480916,0.381679389
317248.9624,8.434782609,3.913043478,8.108695652,-0.061068702,-0.13740458,0.229007634
317268.9514,8.456521739,3.880434783,8.043478261,-0.610687023,0.244274809,0.259541985
317288.9404,8.467391304,3.913043478,8.108695652,-1.053435115,0.534351145,0.564885496
317308.9294,8.445652174,3.97826087,8.163043478,-0.992366412,-0.366412214,0.351145038
317328.9185,8.47826087,3.945652174,8.076086957,-0.473282443,-0.244274809,0.305343511
317348.9075,8.467391304,3.934782609,8.065217391,0.198473282,0.244274809,0.183206107
317368.8965,8.413043478,3.902173913,8.173913043,0.290076336,-0.885496183,-0.167938931
317388.8855,8.423913043,3.858695652,8.173913043,0.427480916,-4.13740458,-0.503816794
317408.8745,8.358695652,3.902173913,8.032608696,0.961832061,-6.351145038,0.198473282
317428.8635,8.467391304,3.956521739,8.010869565,0.442748092,-2.519083969,0.839694656
317448.8525,8.543478261,3.945652174,8.076086957,-0.41221374,1.786259542,2.015267176
317468.8416,8.652173913,3.891304348,8.108695652,0.198473282,2.534351145,2.458015267
317488.8306,8.630434783,3.913043478,8.141304348,1.770992366,1.007633588,2.366412214
317508.8196,8.510869565,4.02173913,8.108695652,2.41221374,-2.122137405,2.396946565
317528.8086,8.47826087,4.065217391,8.010869565,1.419847328,-4,2.320610687
317548.7976,8.467391304,4.02173913,7.989130435,-0.641221374,-4.259541985,2.213740458
317568.7866,8.434782609,3.956521739,7.967391304,-0.900763359,-3.740458015,1.755725191
317588.7756,8.434782609,3.869565217,8.032608696,-0.549618321,-3.236641221,1.374045802
317608.7646,8.456521739,3.869565217,8.108695652,0.854961832,-4.488549618,1.435114504
317628.7537,8.565217391,3.923913043,8.086956522,1.770992366,-5.969465649,1.06870229
317648.7427,8.586956522,3.891304348,8.032608696,2.870229008,-8.79389313,0.625954198
317668.7317,8.576086957,3.913043478,8.065217391,3.175572519,-11.35877863,0.213740458
317688.7207,8.641304348,3.989130435,8.152173913,1.267175573,-14.03053435,0.946564885
317708.7097,8.684782609,3.869565217,7.97826087,-0.732824427,-13.22137405,2.305343511
317728.6987,8.815217391,3.75,7.782608696,1.816793893,-11.80152672,2.748091603
317748.6877,8.836956522,3.880434783,7.782608696,1.847328244,-10.04580153,2.916030534
317768.6768,8.75,4.010869565,7.913043478,-2.778625954,-10.82442748,3.618320611
317788.6658,8.760869565,3.923913043,7.967391304,-8.152671756,-15.38931298,4.152671756
317808.6548,8.5,3.826086957,7.72826087,-7.297709924,-18.93129771,4.167938931
317828.6438,8.75,3.815217391,7.391304348,-4.198473282,-17.90839695,4.687022901
317848.6328,9.02173913,3.826086957,7.206521739,-4.167938931,-8.595419847,4.167938931
317868.6218,8.891304348,3.77173913,7.47826087,-3.114503817,-9.06870229,2.015267176
317888.6108,8.77173913,3.782608696,7.597826087,-3.541984733,-8,2.534351145
317908.5999,8.673913043,3.75,7.956521739,-2.519083969,-16.87022901,3.541984733
317928.5889,8.695652174,3.663043478,7.673913043,0.244274809,-21.2519084,5.572519084
317948.5779,8.858695652,3.652173913,7.239130435,1.908396947,-15.60305344,5.450381679
317968.5669,9.184782609,3.858695652,7.163043478,-0.27480916,-7.404580153,4.854961832
317988.5559,9.304347826,3.793478261,7.47826087,-5.877862595,-7.480916031,3.236641221
318008.5449,9.163043478,3.641304348,7.72826087,-6.27480916,-20.64122137,2.595419847
318028.5339,8.826086957,3.52173913,7.25,-1.175572519,-26.88549618,2.061068702
318048.5229,8.891304348,3.5,6.923913043,1.145038168,-19.49618321,2.229007634
318068.512,9.195652174,3.510869565,6.880434783,-0.854961832,-2.534351145,1.816793893
318088.501,9.423913043,3.652173913,7.195652174,-6.091603053,-0.167938931,-0.381679389
318108.49,9.326086957,3.75,7.47826087,-2.961832061,-16.82442748,-2.641221374
318128.479,8.934782609,3.663043478,7.22826087,1.664122137,-26.16793893,-3.786259542
318148.468,9.097826087,3.52173913,6.945652174,4.870229008,-17.48091603,-3.740458015
318168.457,9.152173913,3.543478261,7.239130435,1.496183206,-9.557251908,-4.015267176
318188.446,9.456521739,3.945652174,7.576086957,-3.389312977,-10.18320611,-1.816793893
318208.4351,9.47826087,3.543478261,7.336956522,3.572519084,-22,-3.465648855
318228.4241,9.467391304,3.902173913,6.945652174,6.732824427,-25.03816794,-3.099236641
318248.4131,8.956521739,4.076086957,6.663043478,7.297709924,-24.35114504,-1.938931298
318268.4021,9.043478261,3.782608696,6.630434783,5.709923664,-17.3740458,-1.86259542
318288.3911,9.010869565,3.52173913,6.782608696,6.473282443,-19.66412214,-3.526717557
318308.3801,9.086956522,3.347826087,6.445652174,14.45801527,-30.44274809,-5.664122137
318328.3691,8.260869565,3.597826087,6.043478261,23.00763359,-36.09160305,-9.251908397
318348.3582,8.391304348,3.815217391,6.467391304,20.54961832,-32.5648855,-9.511450382
318368.3472,9.489130435,4.282608696,6.597826087,21.19083969,-25.00763359,-6.717557252
318388.3362,10.68478261,4.413043478,5.739130435,27.77099237,-11.70992366,-6.732824427
318408.3252,11.04347826,4.652173913,5.586956522,20.30534351,-20.73282443,-9.72519084
318428.3142,10.98913043,4.586956522,6.510869565,4.183206107,-25.86259542,-14.39694656
318448.3032,10.52173913,4.097826087,6.695652174,10.33587786,-28.33587786,-17.77099237
318468.2922,10.89130435,4.347826087,5.923913043,19.57251908,-21.4351145,-13.49618321
318488.2813,10.58695652,4.434782609,5.641304348,12.03053435,-16.54961832,-8.290076336
318508.2703,10.01086957,4.597826087,6,5.633587786,-18.87022901,-7.740458015
318528.2593,9.804347826,4.336956522,6.27173913,-0.916030534,-17.49618321,-6.335877863
318548.2483,9.402173913,4.217391304,6.184782609,5.465648855,-10.30534351,-1.679389313
318568.2373,9.586956522,4.293478261,5.532608696,15.40458015,0.809160305,-0.183206107
318588.2263,9.032608696,4.782608696,5.206521739,3.786259542,6.473282443,1.022900763
318608.2153,9.152173913,4.673913043,5.663043478,-9.709923664,7.923664122,3.007633588
318628.2043,10.13043478,5.054347826,5.380434783,5.465648855,14.71755725,4.610687023
318648.1934,10.27173913,5.619565217,5.467391304,5.572519084,18.70229008,8.93129771
318668.1824,10.83695652,5.760869565,6.032608696,2.229007634,6.763358779,9.389312977
318688.1714,11.02173913,4.52173913,5.891304348,5.72519084,-3.526717557,6.687022901
318708.1604,10.73913043,3.532608696,5.760869565,4.259541985,0.396946565,3.312977099
318728.1494,10.5326087,2.423913043,6.304347826,-4.885496183,-2.229007634,-0.961832061
318748.1384,10.10869565,2.347826087,6.086956522,10.39694656,-13.17557252,-9.984732824
318768.1274,9.358695652,3.52173913,5.239130435,14.61068702,-16.1221374,-23.46564885
318788.1165,8.619565217,3.717391304,5.119565217,12.25954198,-17.84732824,-36.30534351
318808.1055,9.684782609,3.336956522,5.336956522,15.48091603,-18.04580153,-42.83969466
318828.0945,10.47826087,3.326086957,4.858695652,21.2519084,-15.34351145,-50.07633588
318848.0835,10.75,4.054347826,4.380434783,19.3740458,-9.877862595,-63.49618321
318868.0725,10.55434783,4.847826087,4.847826087,21.66412214,-6.335877863,-74.13740458
318888.0615,10.43478261,5.347826087,5.619565217,28.87022901,-1.160305344,-74.94656489
318908.0505,10.39130435,6.130434783,5.445652174,28.15267176,1.419847328,-72.45801527
318928.0396,10.15217391,6.260869565,5.119565217,11.58778626,5.007633588,-72.22900763
318948.0286,9.282608696,6.358695652,6.043478261,7.038167939,-8.259541985,-77.95419847
318968.0176,9.315217391,6.413043478,6.413043478,18.18320611,-19.83206107,-81.20610687
318988.0066,9.847826087,7.02173913,5.619565217,25.70992366,-16.21374046,-78.39694656
319007.9956,9.239130435,7.684782609,4.913043478,20.27480916,-14.30534351,-78.6259542
319027.9846,8.902173913,7.22826087,4.913043478,17.70992366,-22.85496183,-82.33587786
319047.9736,8.293478261,6.869565217,5.380434783,18.90076336,-29.75572519,-81.66412214
319067.9626,8.293478261,6.75,5.184782609,24.16793893,-31.69465649,-77.46564885
319087.9517,8.489130435,7.173913043,4.402173913,26.27480916,-32.59541985,-78.50381679
319107.9407,8.532608696,7.445652174,3.826086957,19.28244275,-32.73282443,-86.76335878
319127.9297,7.913043478,7.532608696,4.141304348,17.20610687,-28.33587786,-91.77099237
319147.9187,7.739130435,7.945652174,4.326086957,16.03053435,-20.99236641,-92.70229008
319167.9077,7.597826087,8.510869565,4.108695652,10.45801527,-18.91603053,-92.61068702
319187.8967,6.891304348,9.347826087,4.456521739,12,-22.42748092,-98.6259542
319207.8857,7.119565217,10.66304348,5.369565217,1.358778626,-18.82442748,-89.51145038
319227.8748,7.619565217,10.76086957,5.739130435,-20.6259542,-30.35114504,-86.91603053
319247.8638,7.836956522,9.836956522,4.75,-20.83969466,-37.34351145,-96.71755725
319267.8528,7.358695652,9.347826087,4.119565217,-12.35114504,-36.25954198,-99.95419847
319287.8418,7.260869565,9.054347826,3.880434783,-5.160305344,-28.67175573,-92.27480916
319307.8308,7.043478261,8.913043478,3.510869565,4.152671756,-21.77099237,-87.66412214
319327.8198,7.315217391,9.239130435,3.130434783,19.32824427,-15.67938931,-85.58778626
319347.8088,6.52173913,9.663043478,3.25,32.93129771,-24.54961832,-85.89312977
319367.7979,5.206521739,9.565217391,3.097826087,36.76335878,-30.80916031,-92.45801527
319387.7869,5.032608696,9.77173913,3.02173913,28.19847328,-31.35877863,-92.5648855
319407.7759,5.206521739,9.967391304,2.923913043,16.36641221,-29.12977099,-90.54961832
319427.7649,5.880434783,9.684782609,2.72826087,10.30534351,-20.6259542,-86.1221374
319447.7539,6.076086957,9.282608696,3.206521739,4.229007634,-11.54198473,-81.49618321
319467.7429,5.586956522,9.467391304,3.380434783,15.40458015,-6.366412214,-82.29007634
319487.7319,5.108695652,10.23913043,3.119565217,22.25954198,0.381679389,-81.38931298
319507.7209,4.869565217,10.40217391,2.52173913,24.67175573,0.625954198,-76.80916031
319527.71,4.336956522,10.4673913,3.543478261,25.66412214,-8.030534351,-67.58778626
319547.699,3.510869565,10.97826087,4.293478261,41.60305344,-6.091603053,-61.52671756
319567.688,3.608695652,11.11956522,3.576086957,36.07633588,6.167938931,-53.77099237
319587.677,3.673913043,11.23913043,2.815217391,20.41221374,6.79389313,-49.55725191
319607.666,3.945652174,11.43478261,2.130434783,3.618320611,6.183206107,-52.71755725
319627.655,3.467391304,11.14130435,2.402173913,-3.038167939,6,-57.28244275
319647.644,2.130434783,11.04347826,2.869565217,9.648854962,4.473282443,-62.01526718
319667.6331,1.434782609,10.73913043,2.380434783,18.33587786,3.419847328,-59.06870229
319687.6221,0.652173913,10.92391304,2.27173913,10.25954198,-5.755725191,-55.06870229
319707.6111,0.369565217,11.60869565,2.597826087,5.679389313,-22.83969466,-55.95419847
319727.6001,0.630434783,11.85869565,2.576086957,14.93129771,-28.38167939,-58.50381679
319747.5891,0.72826087,11.77173913,2.119565217,15.00763359,-27.86259542,-56.0610687
319767.5781,0.22826087,11.5,1.880434783,-0.702290076,-26.47328244,-52.83969466
319787.5671,0.02173913,11.09782609,1.945652174,-15.3129771,-26.36641221,-44.44274809
319807.5562,0.391304348,10.57608696,2.326086957,-10.42748092,-27.4351145,-41.72519084
319827.5452,1.02173913,10.63043478,2.445652174,3.190839695,-29.09923664,-39.00763359
319847.5342,0.913043478,10.42391304,2.076086957,10,-28.5648855,-36.21374046
319867.5232,1.195652174,10.41304348,2.130434783,2.122137405,-24.53435115,-23.84732824
319887.5122,1.543478261,9.880434783,2.456521739,-0.732824427,-20.35114504,-15.57251908
319907.5012,2,9.72826087,2.913043478,0.045801527,-7.908396947,-7.282442748
319927.4902,1.673913043,9.652173913,2.923913043,4.79389313,-3.160305344,-4.885496183
319947.4792,1.217391304,9.815217391,2.826086957,4.961832061,0.473282443,-1.58778626
319967.4683,1.119565217,10.44565217,3.065217391,-1.480916031,7.572519084,2.366412214
319987.4573,0.923913043,10.84782609,3.445652174,-11.2519084,18.82442748,5.679389313
320007.4463,0.72826087,10.92391304,3.75,-21.12977099,26.47328244,10.21374046
320027.4353,0.565217391,11.10869565,4.119565217,-25.51145038,25.86259542,14.32061069
320047.4243,0.608695652,11.68478261,4.467391304,-25.22137405,22.6870229,17.28244275
320067.4133,0.597826087,11.7826087,4.184782609,-18.35114504,18.50381679,16.59541985
320087.4023,0.206521739,12.14130435,3.576086957,-0.625954198,10.13740458,8.839694656
320107.3914,0.434782609,12.54347826,1.945652174,17.77099237,-2.717557252,-1.679389313
320127.3804,1.880434783,11.58695652,1.77173913,6.305343511,-4.427480916,1.877862595
320147.3694,2.152173913,10.54347826,2.336956522,0.641221374,4.65648855,5.923664122
320167.3584,1.880434783,10.75,2.489130435,12.03053435,7.954198473,5.541984733
320187.3474,1.77173913,11.58695652,2.119565217,21.06870229,7.923664122,5.908396947
320207.3364,1.652173913,11.85869565,1.760869565,20.01526718,5.740458015,6.152671756
320227.3254,1.510869565,11.40217391,2.02173913,13.69465649,5.618320611,4.641221374
320247.3145,1.239130435,10.86956522,2.576086957,7.419847328,7.06870229,2.366412214
320267.3035,1.054347826,10.29347826,2.913043478,2.717557252,8.854961832,1.954198473
320287.2925,1.434782609,10.01086957,3.010869565,3.358778626,9.145038168,4.030534351
320307.2815,2.010869565,10.11956522,2.858695652,9.34351145,8.946564885,5.938931298
320327.2705,2.293478261,10.5,2.619565217,15.23664122,7.770992366,6.213740458
320347.2595,2.217391304,10.70652174,2.489130435,17.89312977,7.557251908,4.839694656
320367.2485,1.923913043,10.59782609,2.380434783,15.70992366,7.06870229,4.748091603
320387.2375,1.782608696,10.51086957,2.304347826,14.24427481,8.290076336,5.633587786
320407.2266,1.434782609,10.7173913,2.141304348,17.19083969,6.213740458,3.251908397
320427.2156,0.97826087,11.15217391,1.923913043,21.83206107,0,0.061068702
320447.2046,0.793478261,11.60869565,1.782608696,20.76335878,-1.648854962,-1.022900763
320467.1936,0.902173913,11.67391304,1.717391304,12.99236641,0.671755725,0.015267176
320487.1826,1.108695652,11.59782609,1.902173913,4.427480916,3.511450382,0.687022901
320507.1716,1.315217391,11.4673913,2.108695652,2.427480916,2.961832061,0.091603053
320527.1606,1.554347826,11.36956522,2.152173913,2.122137405,1.511450382,0.366412214
320547.1497,1.706521739,11.30434783,2.141304348,2.839694656,0.900763359,1.923664122
320567.1387,1.836956522,11.17391304,2.054347826,2.473282443,1.419847328,3.633587786
320587.1277,1.902173913,11.01086957,2.065217391,2.229007634,2.305343511,4.595419847
320607.1167,1.804347826,10.95652174,2.065217391,3.847328244,2.549618321,4.778625954
320627.1057,1.695652174,10.92391304,2.032608696,7.007633588,1.801526718,4.534351145
320647.0947,1.532608696,10.89130435,1.956521739,9.328244275,1.893129771,4.717557252
320667.0837,1.510869565,10.80434783,1.913043478,10.96183206,2.839694656,6.305343511
320687.0728,1.52173913,10.7173913,1.913043478,13.03816794,2.41221374,7.526717557
320707.0618,0.956521739,12.2826087,2.02173913,33.4351145,-11.70992366,32.48854962
320727.0508,1.260869565,10.76086957,1.554347826,19.38931298,0.534351145,7.160305344
320747.0398,1.467391304,10.88043478,1.739130435,18.48854962,0.473282443,8.458015267
320767.0288,1.869565217,10.89130435,1.663043478,21.19083969,3.007633588,10.48854962
320787.0178,1.77173913,11.0326087,1.554347826,21.11450382,2.198473282,7.267175573
320807.0068,1.586956522,11.06521739,1.326086957,17.95419847,1.465648855,2.748091603
320826.9958,1.619565217,11.01086957,1.25,11.86259542,3.984732824,3.679389313
320846.9849,1.695652174,11.0326087,1.260869565,8.259541985,5.86259542,3.908396947
320866.9739,1.641304348,11.22826087,1.195652174,2.610687023,4.595419847,3.221374046
320886.9629,1.72826087,11.2173913,1.22826087,-1.816793893,2.610687023,3.282442748
320906.9519,1.847826087,11.2826087,1.445652174,-9.557251908,-0.79389313,4.778625954
320926.9409,1.902173913,10.97826087,1.52173913,-12.79389313,-4.091603053,6.473282443
320946.9299,1.793478261,11.02173913,1.217391304,-12.19847328,-3.419847328,8.030534351
320966.9189,1.891304348,11.34782609,1.184782609,-12.50381679,-0.595419847,10.15267176
320986.908,2.010869565,11.13043478,1.347826087,-10.47328244,1.618320611,9.816793893
321006.897,2.032608696,10.89130435,1.358695652,-12.44274809,2.946564885,9.404580153
321026.886,2.043478261,10.77173913,1.489130435,-12.03053435,4.320610687,8.564885496
321046.875,2.02173913,10.79347826,1.597826087,-8.152671756,4.519083969,6.488549618
321066.864,1.945652174,10.86956522,1.586956522,-4.534351145,2.977099237,4.732824427
321086.853,1.923913043,11.01086957,1.47826087,-6.335877863,3.221374046,5.282442748
321106.842,1.945652174,11.06521739,1.47826087,-11.77099237,4.900763359,5.969465649
321126.8311,2.054347826,10.93478261,1.576086957,-15.66412214,5.755725191,6.320610687
321146.8201,2.130434783,10.80434783,1.847826087,-14.39694656,4.916030534,5.603053435
321166.8091,2.206521739,10.93478261,2.086956522,-10.30534351,1.435114504,4.045801527
321186.7981,2.195652174,11.0326087,2.119565217,-8.900763359,-3.648854962,2.351145038
321206.7871,2.065217391,11.26086957,1.804347826,-9.511450382,-5.465648855,2.030534351
321226.7761,2.086956522,11.36956522,1.695652174,-11.75572519,-2.702290076,4.076335878
321246.7651,2.065217391,11.15217391,1.902173913,-10.77862595,0.259541985,6.27480916
321266.7542,2.076086957,10.93478261,1.913043478,-8.076335878,1.969465649,6.900763359
321286.7432,2.054347826,10.85869565,2,-4.320610687,2.549618321,7.007633588
321306.7322,2.043478261,10.93478261,2.010869565,-0.442748092,3.297709924,7.129770992
321326.7212,2.108695652,11.06521739,1.945652174,0.625954198,3.648854962,6.320610687
321346.7102,2.130434783,11.17391304,1.989130435,-0.854961832,3.954198473,5.679389313
321366.6992,2.217391304,11.18478261,1.956521739,-3.20610687,4.458015267,5.633587786
321386.6882,2.173913043,11.0326087,2.076086957,-3.297709924,3.374045802,5.511450382
321406.6772,2.22826087,10.88043478,2.032608696,-0.41221374,0.519083969,4.580152672
321426.6663,2.315217391,10.93478261,2.119565217,1.20610687,-4.946564885,3.709923664
321446.6553,2.52173913,11.11956522,2.173913043,1.328244275,-8.946564885,3.083969466
321466.6443,2.77173913,11.22826087,2.032608696,-3.114503817,-8.549618321,4.351145038
321486.6333,2.836956522,11.27173913,2.086956522,-6.061068702,-4.061068702,4.427480916
321506.6223,2.760869565,11.34782609,1.913043478,-9.190839695,1.908396947,3.648854962
321526.6113,2.467391304,11.16304348,2.010869565,-10.64122137,5.053435115,1.20610687
321546.6003,2.239130435,10.94565217,2.076086957,-6.488549618,1.480916031,-1.709923664
321566.5894,2.195652174,10.79347826,1.97826087,-2.839694656,-1.709923664,-3.404580153
321586.5784,2.25,10.88043478,1.847826087,-2.458015267,-2.580152672,-4.152671756
321606.5674,2.347826087,10.94565217,1.934782609,-2.396946565,-2.244274809,-4.061068702
321626.5564,2.369565217,11,2.032608696,-1.083969466,-0.641221374,-3.72519084
321646.5454,2.22826087,10.84782609,2.086956522,-1.083969466,0.229007634,-4.396946565
321666.5344,2.141304348,10.76086957,2.184782609,-0.65648855,1.389312977,-6.152671756
321686.5234,2.195652174,10.98913043,2.141304348,1.083969466,1.832061069,-7.618320611
321706.5125,2.282608696,11.20652174,2.054347826,3.801526718,2.93129771,-7.770992366
321726.5015,2.304347826,11.07608696,1.902173913,4.458015267,4.916030534,-6.106870229
321746.4905,2.195652174,10.88043478,1.956521739,3.038167939,6.091603053,-4.061068702
321766.4795,2.086956522,10.7826087,2.076086957,4.366412214,6.519083969,-3.572519084
321786.4685,2.02173913,11.0326087,2.108695652,8.259541985,4.702290076,-5.450381679
321806.4575,2.054347826,11.31521739,2,11.23664122,2.442748092,-7.282442748
321826.4465,2.130434783,11.45652174,1.836956522,8.045801527,3.404580153,-5.480916031
321846.4355,2.097826087,11.36956522,1.869565217,1.740458015,6.671755725,-2.13740458
321866.4246,1.945652174,11.08695652,2,-1.801526718,7.816793893,0.366412214
321886.4136,1.891304348,10.90217391,2.076086957,-2.122137405,5.20610687,0.061068702
321906.4026,1.934782609,10.91304348,2.043478261,0.030534351,1.847328244,-2.076335878
321926.3916,1.967391304,11.08695652,1.956521739,0.885496183,0.503816794,-2.732824427
321946.3806,2.032608696,11.18478261,1.880434783,-0.061068702,1.618320611,-2
321966.3696,2.076086957,11.08695652,1.902173913,-1.908396947,3.358778626,0.335877863
321986.3586,2.141304348,10.90217391,1.945652174,-2.595419847,4.381679389,1.450381679
322006.3477,2.184782609,10.79347826,1.923913043,-0.900763359,3.816793893,1.022900763
322026.3367,2.206521739,10.89130435,1.891304348,0.549618321,2.305343511,0.152671756
322046.3257,2.184782609,11,1.869565217,1.236641221,1.511450382,-0.259541985
322066.3147,2.086956522,11,1.880434783,0.79389313,1.694656489,0.503816794
322086.3037,1.97826087,10.97826087,1.891304348,0.229007634,2.458015267,1.358778626
322106.2927,1.934782609,10.98913043,1.826086957,-0.213740458,2.366412214,1.236641221
322126.2817,1.989130435,10.93478261,1.945652174,0.015267176,1.908396947,1.389312977
322146.2708,2.010869565,11,1.97826087,0.809160305,1.404580153,1.190839695
322166.2598,2.032608696,11.04347826,1.913043478,0.961832061,1.007633588,0.885496183
322186.2488,2.086956522,11.07608696,1.956521739,1.679389313,0.458015267,0.732824427
322206.2378,2.086956522,11.11956522,1.989130435,3.34351145,0.030534351,0.351145038
322226.2268,2.097826087,11.15217391,1.967391304,4.290076336,-0.458015267,0.381679389
322246.2158,2.076086957,11.15217391,1.934782609,3.358778626,0.244274809,1.145038168
322266.2048,2.086956522,11.14130435,1.858695652,2,0.977099237,1.175572519
322286.1938,2.097826087,11.06521739,1.760869565,1.282442748,0.79389313,0.946564885
322306.1829,2.141304348,11.0326087,1.77173913,1.984732824,0.824427481,0.534351145
322326.1719,2.163043478,11.0326087,1.804347826,3.34351145,-0.198473282,-0.061068702
322346.1609,2.152173913,11.0326087,1.836956522,4.748091603,-0.534351145,-0.305343511
322366.1499,2.108695652,11.01086957,1.793478261,5.496183206,0.045801527,0.167938931
322386.1389,2.097826087,10.95652174,1.826086957,6.381679389,-0.152671756,0.076335878
322406.1279,2.065217391,10.95652174,1.793478261,7.251908397,-0.396946565,-0.320610687
322426.1169,2.076086957,11.02173913,1.717391304,6.702290076,-0.702290076,-0.824427481
322446.106,2.054347826,11.05434783,1.673913043,6.045801527,-1.038167939,-0.885496183
322466.095,2.086956522,11.07608696,1.673913043,5.709923664,-0.839694656,-0.778625954
322486.084,2.054347826,11.02173913,1.717391304,5.083969466,-0.290076336,-0.259541985
322506.073,2.054347826,10.97826087,1.684782609,6.167938931,0.396946565,-0.13740458
322526.062,2.065217391,10.98913043,1.52173913,5.496183206,0.473282443,0.79389313
322546.051,2.076086957,11.05434783,1.358695652,-0.625954198,0.641221374,1.236641221
322566.04,2.086956522,10.98913043,1.47826087,-4.488549618,0.473282443,1.450381679
322586.0291,2.163043478,10.92391304,1.782608696,-2.488549618,0.549618321,2.091603053
322606.0181,2.141304348,10.93478261,1.902173913,1.34351145,0.183206107,2.091603053
322626.0071,2.152173913,11.02173913,1.858695652,4.244274809,-0.549618321,2.41221374
322645.9961,2.065217391,11.14130435,1.72826087,4.93129771,-0.778625954,2.65648855
322665.9851,2.02173913,11.15217391,1.695652174,4.381679389,-0.213740458,2.854961832
322685.9741,2,11.14130435,1.619565217,4.610687023,0.625954198,2.992366412
322705.9631,2.032608696,11.09782609,1.543478261,3.847328244,0.870229008,2.030534351
322725.9521,2.065217391,11.04347826,1.510869565,3.832061069,0.458015267,1.129770992
322745.9412,2.097826087,11,1.423913043,4.702290076,-0.030534351,-0.076335878
322765.9302,2.239130435,11.0326087,1.434782609,4.748091603,-0.167938931,-0.916030534
322785.9192,2.260869565,11.05434783,1.402173913,4.809160305,0.015267176,-0.79389313
322805.9082,2.25,11.0326087,1.391304348,3.251908397,0.41221374,-0.687022901
322825.8972,2.152173913,10.97826087,1.467391304,2.442748092,1.312977099,0.167938931
322845.8862,2.184782609,10.92391304,1.391304348,1.86259542,1.603053435,0.381679389
322865.8752,2.141304348,10.89130435,1.489130435,2.458015267,0.65648855,-0.091603053
322885.8643,2.184782609,10.93478261,1.282608696,2.625954198,0.41221374,-0.41221374
322905.8533,2.097826087,10.9673913,1.456521739,2.748091603,0.396946565,-0.473282443
322925.8423,2.054347826,10.94565217,1.423913043,3.175572519,0.305343511,-0.076335878
322945.8313,2.076086957,10.97826087,1.413043478,3.114503817,0.79389313,0.167938931
322965.8203,2.043478261,10.97826087,1.456521739,3.038167939,0.900763359,0.305343511
322985.8093,2.010869565,10.98913043,1.467391304,2.717557252,0.702290076,0.167938931
323005.7983,2.054347826,11.01086957,1.413043478,2.641221374,0.687022901,0.183206107
323025.7874,2.054347826,11.05434783,1.369565217,2.198473282,0.900763359,0.152671756
323045.7764,2.032608696,11.04347826,1.402173913,1.908396947,1.06870229,0.106870229
323065.7654,2.010869565,11,1.358695652,3.114503817,0.854961832,0
323085.7544,2.054347826,11,1.391304348,4.244274809,0.458015267,-0.27480916
323105.7434,2.130434783,10.97826087,1.326086957,6.473282443,-0.167938931,-1.083969466
323125.7324,2.184782609,10.98913043,1.282608696,7.877862595,0.458015267,-1.572519084
323145.7214,2.130434783,10.94565217,1.304347826,11.69465649,-0.335877863,-1.557251908
323165.7104,2.065217391,10.94565217,1.217391304,14.76335878,0.167938931,-0.992366412
323185.6995,2.065217391,10.95652174,1.217391304,15.00763359,2.259541985,-0.65648855
323205.6885,2.173913043,10.88043478,1.358695652,15.84732824,3.129770992,-2.595419847
323225.6775,2.22826087,10.77173913,1.358695652,20.54961832,2.396946565,-6.366412214
323245.6665,2.217391304,10.79347826,1.25,24.59541985,0.839694656,-9.648854962
323265.6555,2.217391304,10.85869565,1.043478261,27.14503817,-0.320610687,-12.22900763
323285.6445,2.22826087,10.89130435,0.869565217,28.87022901,-0.122137405,-13.26717557
323305.6335,2.217391304,10.86956522,0.608695652,28.41221374,-0.106870229,-14.54961832
323325.6226,2.27173913,10.94565217,0.358695652,23.57251908,-1.022900763,-17.23664122
323345.6116,2.097826087,11.02173913,0.304347826,13.60305344,-4.65648855,-18.71755725
323365.6006,1.72826087,10.91304348,0.47826087,12.39694656,-3.58778626,-16.21374046
323385.5896,1.608695652,10.82608696,0.347826087,9.297709924,0.13740458,-12.65648855
323405.5786,1.304347826,11.09782609,0.152173913,-2.045801527,0.13740458,-7.969465649
323425.5676,1.239130435,11.2826087,0.510869565,-6.229007634,-1.86259542,-5.267175573
323445.5566,1.27173913,11.31521739,0.586956522,-4.809160305,-4.503816794,-4.13740458
323465.5457,1.217391304,11.34782609,0.402173913,-6.839694656,-3.358778626,-2.061068702
323485.5347,1.152173913,11.2173913,0.369565217,-10.70229008,-0.824427481,-0.183206107
323505.5237,1.239130435,10.84782609,0.815217391,-12.1221374,0.106870229,1.709923664
323525.5127,1.456521739,10.56521739,0.826086957,-7.160305344,-1.20610687,0.152671756
323545.5017,1.456521739,10.64130435,0.815217391,-0.458015267,-0.625954198,-0.641221374
323565.4907,1.619565217,10.9673913,0.652173913,0.824427481,-0.992366412,-0.595419847
323585.4797,1.804347826,11.02173913,0.597826087,-0.946564885,-1.129770992,0.061068702
323605.4688,1.836956522,10.97826087,0.77173913,-1.358778626,-2.320610687,0.244274809
323625.4578,2.010869565,10.86956522,0.858695652,0.763358779,-1.740458015,-0.061068702
323645.4468,2.163043478,10.73913043,0.445652174,-1.984732824,-3.06870229,0.519083969
323665.4358,1.858695652,10.70652174,0.706521739,-5.419847328,-1.740458015,-0.549618321
323685.4248,1.293478261,10.52173913,0.858695652,0.916030534,0.244274809,2.351145038
323705.4138,1.315217391,10.31521739,0.869565217,8.442748092,-0.671755725,2.351145038
323725.4028,1.663043478,10.2826087,0.760869565,10.42748092,-3.801526718,-1.190839695
323745.3918,1.77173913,10.16304348,0.913043478,14.35114504,-5.618320611,-2.030534351
323765.3809,1.739130435,10.10869565,1.25,24.07633588,-1.633587786,2.65648855
323785.3699,1.402173913,10.69565217,1.423913043,36.70229008,1.58778626,9.221374046
323805.3589,1.532608696,11.29347826,0.782608696,37.3129771,-1.801526718,8.259541985
323825.3479,1.782608696,11.22826087,0.597826087,27.11450382,-5.847328244,4.702290076
323845.3369,1.673913043,11.15217391,1.326086957,35.08396947,-2.717557252,8.045801527
323865.3259,1.97826087,11.19565217,1.065217391,50.33587786,4.595419847,8.488549618
323885.3149,1.782608696,11.55434783,0.467391304,57.64885496,8.396946565,6.824427481
323905.304,1.619565217,12.0326087,-0.097826087,60.45801527,12.04580153,7.480916031
323925.293,1.423913043,12.36956522,-0.097826087,68.33587786,9.480916031,6.763358779
323945.282,1.532608696,12.14130435,-0.065217391,78.38167939,5.282442748,5.572519084
323965.271,1.815217391,11.86956522,-0.326086957,95.32824427,-6.79389313,-4.564885496
323985.26,2.826086957,11.83695652,-1.869565217,93.41984733,-9.954198473,-10.24427481
324005.249,3.02173913,11.73913043,-2.652173913,63.32824427,10.50381679,-2.045801527
324025.238,2.108695652,11.89130435,-1.097826087,58.39694656,15.74045802,3.358778626
324045.2271,1.076086957,11.93478261,0.141304348,79.70992366,0.320610687,11.72519084
324065.2161,1.836956522,12.14130435,-1.445652174,85.46564885,-11.29770992,18.47328244
324085.2051,2.304347826,11.88043478,-2.923913043,56.41221374,-10.6870229,20.48854962
324105.1941,1.793478261,11.38043478,-2.608695652,24.41221374,-1.541984733,27.19083969
324125.1831,1.195652174,11.20652174,-1.576086957,12.36641221,3.374045802,32.53435115
324145.1721,1.47826087,10.89130435,-1.434782609,18.04580153,-5.053435115,27.28244275
324165.1611,2.315217391,10.5326087,-1.543478261,-2.916030534,-17.51145038,25.51145038
324185.1501,3.47826087,9.891304348,0.097826087,-39.75572519,-9.557251908,32.6259542
324205.1392,3.369565217,8.663043478,2.239130435,-36.73282443,1.557251908,31.55725191
324225.1282,2.630434783,7.77173913,1.554347826,-14.01526718,6.961832061,25.00763359
324245.1172,1.576086957,7.065217391,-1.793478261,-9.86259542,-15.63358779,7.282442748
324265.1062,0.97826087,7.456521739,-4.25,27.58778626,-40.7480916,-6.473282443
324285.0952,1.010869565,9.369565217,-5.282608696,44.04580153,-42.09160305,-19.32824427
324305.0842,1.858695652,11.32608696,-4.217391304,62.61068702,-37.4351145,-35.66412214
324325.0732,2.652173913,9.913043478,-4.130434783,94.01526718,-39.17557252,-45.61832061
324345.0623,2.934782609,8.423913043,-3.913043478,149.2366412,-34.25954198,-47.90839695
324365.0513,2.717391304,9.413043478,-5.467391304,164.3816794,-16.21374046,-67.17557252
324385.0403,1.52173913,9.304347826,-4.532608696,215.2061069,-6.748091603,-68.96183206
324405.0293,1.163043478,8.282608696,-5.619565217,266.8091603,-15.61832061,-53.17557252
324425.0183,1.663043478,8.369565217,-7.347826087,286.3816794,-25.22137405,-35.46564885
324445.0073,1.086956522,8.47826087,-8.097826087,262.2137405,-18.67175573,-33.83206107
324464.9963,0.586956522,7.760869565,-9.043478261,215.8320611,-12.15267176,-39.67938931
324484.9854,0.195652174,6.869565217,-9.173913043,160.9465649,-6.564885496,-31.84732824
324504.9744,0.293478261,6.423913043,-8.423913043,109.9541985,-0.290076336,-19.90839695
324524.9634,0.391304348,6.032608696,-8.27173913,72.99236641,2.625954198,-10.83969466
324544.9524,0.27173913,5.72826087,-8.239130435,36.85496183,5.175572519,-4.870229008
324564.9414,0.260869565,5.489130435,-8.130434783,-3.709923664,14.30534351,-0.320610687
324584.9304,0.086956522,5.565217391,-8,-48.04580153,20.41221374,0.167938931
324604.9194,0.217391304,5.945652174,-8.282608696,-106.1679389,21.90839695,-1.374045802
324624.9084,0.282608696,6.467391304,-7.641304348,-154.9923664,24.35114504,1.496183206
324644.8975,0.543478261,6.989130435,-6.880434783,-181.4503817,29.69465649,8.473282443
324664.8865,0.739130435,7.413043478,-6.445652174,-206.1832061,30.6259542,9.083969466
324684.8755,0.782608696,7.793478261,-5.565217391,-212.1221374,30.42748092,8.13740458
324704.8645,1.152173913,7.554347826,-4.804347826,-196.3664122,27.89312977,4.488549618
324724.8535,1.217391304,7.673913043,-3.967391304,-167.1450382,27.75572519,13.48091603
324744.8425,1.184782609,7.77173913,-3.347826087,-143.0992366,22.94656489,20.35114504
324764.8315,0.913043478,7.641304348,-3.445652174,-82.51908397,-16.71755725,12.50381679
324784.8206,1.445652174,7.5,-3.010869565,-47.35877863,-26.54961832,13.34351145
324804.8096,1.065217391,7.989130435,-2.5,-45.38931298,-16.83969466,8.015267176
324824.7986,1.152173913,7.456521739,-2.315217391,-64.35114504,20.22900763,7.06870229
324844.7876,0.532608696,6.543478261,-1.902173913,-69.64885496,55.02290076,17.55725191
324864.7766,1.391304348,7.25,-1.989130435,-46.80916031,39.22137405,17.67938931
324884.7656,2.130434783,8.869565217,-2.336956522,-49.35877863,13.32824427,10.65648855
324904.7546,2.413043478,9.119565217,-2.163043478,-77.28244275,-23.38931298,2.152671756
324924.7437,2,9.163043478,-1.586956522,-107.2824427,-28.0610687,-8.122137405
324944.7327,1.706521739,8.554347826,-1.956521739,-122.3969466,-9.618320611,-8
324964.7217,1.77173913,7.641304348,-2.543478261,-106.9007634,2.320610687,-2.030534351
324984.7107,1.815217391,8.119565217,-2.858695652,-97.9389313,7.86259542,9.526717557
325004.6997,1.652173913,8.25,-2.836956522,-101.3740458,15.81679389,23.48091603
325024.6887,1.282608696,7.836956522,-2.358695652,-100.5954198,35.06870229,34.7480916
325044.6777,1.282608696,7.956521739,-1.836956522,-92.45801527,33.96946565,32.15267176
325064.6667,0.826086957,8.065217391,-1.282608696,-87.63358779,26.5648855,26.18320611
325084.6558,1.22826087,8.130434783,-0.880434783,-97.28244275,27.05343511,24.04580153
325104.6448,1.989130435,8.163043478,-0.336956522,-98.13740458,30.50381679,17.69465649
325124.6338,3.347826087,8.663043478,0.206521739,-79.58778626,38.54961832,18.59541985
325144.6228,4.510869565,8.989130435,0.543478261,-66.41221374,44.42748092,15.60305344
325164.6118,4.847826087,9.554347826,0.510869565,-51.83206107,46.38167939,12.47328244
325184.6008,4.152173913,10.05434783,0.619565217,-42.15267176,26.07633588,6.564885496
325204.5898,2.97826087,10.4673913,0.739130435,-29.16030534,4.580152672,-7.312977099
325224.5789,2.402173913,10.7173913,1.010869565,-21.02290076,-8.503816794,-17.78625954
325244.5679,2.326086957,10.66304348,0.815217391,-30.58015267,-3.175572519,-19.75572519
325264.5569,3.097826087,10.29347826,0.456521739,-42.22900763,18.83969466,-18.71755725
325284.5459,3.717391304,10.13043478,0.782608696,-45.96946565,24.51908397,-13.14503817
325304.5349,4.163043478,9.815217391,0.934782609,-46.5648855,15.02290076,-13.08396947
325324.5239,4.282608696,9.565217391,0.945652174,-37.2519084,7.312977099,-16.42748092
325344.5129,3.673913043,9.641304348,0.989130435,-24.73282443,-0.122137405,-19.00763359
325364.502,2.641304348,10.02173913,0.989130435,-10.1221374,-8.305343511,-19.54198473
325384.491,1.706521739,11.61956522,0.902173913,13.38931298,-4.534351145,-13.57251908
325404.48,1.152173913,13.66304348,0.413043478,16.24427481,14.35114504,-3.06870229
325424.469,2.402173913,12.9673913,0.163043478,5.419847328,29.86259542,7.20610687
325444.458,2.586956522,10.98913043,0.358695652,-9.06870229,32.22900763,-1.801526718
325464.447,2.282608696,9.956521739,0.739130435,-17.06870229,19.17557252,-13.70992366
325484.436,1.52173913,9.5,1.239130435,-18.96183206,-2.091603053,-23.40458015
325504.425,0.836956522,9.77173913,1.489130435,-3.816793893,-22.09160305,-28.70229008
325524.4141,0.369565217,10.72826087,0.717391304,18.22900763,-28.96183206,-18.25954198
325544.4031,0.347826087,11.45652174,-0.217391304,11.49618321,-15.81679389,-3.236641221
325564.3921,0.717391304,11.18478261,-0.413043478,-4.519083969,-5.847328244,1.664122137
325584.3811,1.152173913,10.59782609,0.206521739,-9.954198473,-1.572519084,2.870229008
325604.3701,1.369565217,10.77173913,0.543478261,-9.267175573,-2.458015267,-9.022900763
325624.3591,0.869565217,11.29347826,0.586956522,5.099236641,-17.81679389,-11.77099237
325644.3481,0.760869565,11.38043478,1.076086957,4.854961832,-22.42748092,-12
325664.3372,0.456521739,10.92391304,1.260869565,7.06870229,-23.41984733,-10.09160305
325684.3262,0.391304348,10.89130435,1.304347826,9.572519084,-24.90076336,-9.450381679
325704.3152,0.423913043,10.94565217,1.152173913,6.106870229,-27.12977099,-7.34351145
325724.3042,0.75,10.81521739,1.434782609,0.27480916,-23.40458015,-5.709923664
325744.2932,0.652173913,10.92391304,1.760869565,-3.099236641,-25.03816794,-5.847328244
325764.2822,0.956521739,11.09782609,1.684782609,0.290076336,-28.59541985,-6.717557252
325784.2712,0.989130435,11.20652174,1.869565217,0.442748092,-27.80152672,-6.900763359
325804.2603,0.891304348,11.09782609,1.77173913,-1.007633588,-27.83206107,-6.076335878
325824.2493,0.695652174,10.9673913,1.489130435,-0.900763359,-26.44274809,-5.450381679
325844.2383,0.576086957,10.82608696,1.456521739,-2.977099237,-23.54198473,-4.366412214
325864.2273,0.565217391,10.70652174,1.72826087,-5.938931298,-19.45038168,-3.389312977
325884.2163,0.804347826,10.4673913,2.010869565,-6.717557252,-15.64885496,-2.458015267
325904.2053,1.043478261,10.42391304,2.076086957,-1.419847328,-13.55725191,-1.435114504
325924.1943,1.304347826,10.59782609,1.706521739,1.465648855,-8.977099237,-1.496183206
325944.1833,1.358695652,11.06521739,1.47826087,0.335877863,-1.267175573,-1.557251908
325964.1724,1.456521739,11.4673913,1.597826087,-3.664122137,1.465648855,-0.717557252
325984.1614,1.858695652,11.47826087,1.576086957,-3.007633588,4.13740458,0.702290076
326004.1504,1.989130435,11.58695652,1.576086957,-4.458015267,7.160305344,0.198473282
326024.1394,1.945652174,11.72826087,1.945652174,-14.25954198,13.03816794,1.312977099
326044.1284,2.108695652,11.67391304,2.152173913,-21.41984733,10.13740458,1.954198473
326064.1174,1.815217391,11.30434783,2.076086957,-25.06870229,4.885496183,6.458015267
326084.1064,1.532608696,10.81521739,1.586956522,-24.33587786,-0.061068702,8.763358779
326104.0955,0.934782609,10.29347826,0.858695652,-22.6259542,-3.251908397,13.29770992
326124.0845,0.641304348,9.891304348,-0.086956522,-20.0610687,13.3740458,9.465648855
326144.0735,-0.02173913,9.72826087,0.152173913,-13.67938931,22.88549618,6.183206107
326164.0625,-0.163043478,9.641304348,1.097826087,-11.81679389,20.18320611,2.916030534
326184.0515,0.576086957,10.32608696,1.619565217,-7.053435115,7.618320611,4.641221374
326204.0405,1.304347826,10.94565217,1.065217391,-2.396946565,6.152671756,6.977099237
326224.0295,1.52173913,11.36956522,0.836956522,1.908396947,-1.022900763,7.618320611
326244.0186,1.467391304,11.7173913,0.913043478,4.93129771,-8.442748092,6.503816794
326264.0076,1.25,11.79347826,1.380434783,3.709923664,-10.65648855,6.015267176
326283.9966,1.22826087,11.47826087,1.652173913,3.603053435,-11.78625954,7.160305344
326303.9856,1.315217391,11.2173913,1.760869565,3.633587786,-14.32061069,8.381679389
326323.9746,1.5,11.08695652,1.815217391,3.618320611,-15.48091603,8.198473282
326343.9636,1.684782609,10.7173913,1.597826087,2.564885496,-12.73282443,5.801526718
326363.9526,1.77173913,10.72826087,1.489130435,0.916030534,-3.893129771,5.72519084
326383.9417,1.630434783,10.55434783,1.782608696,-1.694656489,-1.083969466,5.847328244
326403.9307,1.695652174,10.69565217,1.815217391,-0.732824427,-4.687022901,6.396946565
326423.9197,1.858695652,10.75,1.576086957,2.122137405,-8.244274809,5.923664122
326443.9087,1.902173913,11.04347826,1.47826087,4.458015267,-8.41221374,4.519083969
326463.8977,1.869565217,11.17391304,1.760869565,5.694656489,-7.618320611,3.328244275
326483.8867,1.684782609,11.38043478,1.847826087,7.801526718,-10.61068702,2.320610687
326503.8757,1.565217391,11.25,1.510869565,7.312977099,-14.94656489,2.351145038
326523.8647,1.565217391,10.95652174,1.369565217,6.045801527,-17.58778626,2.580152672
326543.8538,1.619565217,10.76086957,1.369565217,6.977099237,-18.10687023,3.129770992
326563.8428,1.565217391,10.7173913,1.47826087,8.091603053,-18.64122137,3.801526718
326583.8318,1.684782609,10.73913043,1.630434783,9.679389313,-19.45038168,3.969465649
326603.8208,1.52173913,10.80434783,1.77173913,11.38931298,-20.59541985,4.458015267
326623.8098,1.532608696,10.86956522,1.641304348,11.60305344,-22.64122137,5.328244275
326643.7988,1.467391304,10.82608696,1.445652174,12.67175573,-25.90839695,6.41221374
326663.7878,1.304347826,10.93478261,1.336956522,12.29007634,-28.32061069,7.282442748
326683.7769,1.076086957,11.17391304,1.336956522,8.519083969,-28.19847328,7.893129771
326703.7659,1.02173913,11.14130435,1.652173913,5.770992366,-30.42748092,9.236641221
326723.7549,1.119565217,11.02173913,1.858695652,4.870229008,-34.58015267,9.664122137
326743.7439,1.163043478,11.04347826,1.967391304,3.938931298,-38.54961832,10.38167939
326763.7329,1.22826087,11.2173913,1.826086957,1.358778626,-37.81679389,10.25954198
326783.7219,1.119565217,11.15217391,1.869565217,-3.389312977,-30.73282443,9.633587786
326803.7109,0.891304348,11.20652174,2.02173913,-5.526717557,-29.67938931,12.29007634
326823.7,1.076086957,11.36956522,1.923913043,-4.41221374,-30.53435115,14.04580153
326843.689,1.380434783,11.29347826,1.989130435,-8.580152672,-30.16793893,14.16793893
326863.678,1.815217391,11.29347826,1.880434783,-8.198473282,-27.3129771,14.1221374
326883.667,2.119565217,11.56521739,1.760869565,-5.954198473,-20.58015267,14.67175573
326903.656,2.282608696,11.81521739,1.380434783,-4.946564885,-16.91603053,14.35114504
326923.645,2.097826087,11.83695652,1,0.549618321,-23.02290076,12.54961832
326943.634,1.326086957,11.41304348,1.108695652,1.038167939,-28.83969466,9.969465649
326963.623,0.902173913,10.81521739,1.315217391,-6.061068702,-29.35877863,10.77862595
326983.6121,1.184782609,10.55434783,1.532608696,-13.28244275,-24.18320611,13.3740458
327003.6011,1.815217391,10.66304348,1.793478261,-17.64885496,-21.78625954,17.14503817
327023.5901,2.565217391,10.92391304,1.815217391,-15.28244275,-21.14503817,18.83969466
327043.5791,2.858695652,11.19565217,1.815217391,-18.44274809,-18.47328244,18.6259542
327063.5681,2.467391304,11.05434783,1.72826087,-19.28244275,-23.11450382,17.81679389
327083.5571,1.934782609,11.01086957,1.554347826,-17.95419847,-37.40458015,18.25954198
327103.5461,1.847826087,11.16304348,1.358695652,-18.38167939,-46.59541985,19.02290076
327123.5352,1.956521739,11.01086957,1.239130435,-18.83969466,-45.80152672,18.19847328
327143.5242,2.380434783,10.58695652,1.206521739,-16.71755725,-40.42748092,15.98473282
327163.5132,2.836956522,10.13043478,1.315217391,-12.88549618,-39.12977099,14.38167939
327183.5022,2.923913043,9.989130435,1.489130435,-6.687022901,-41.48091603,13.75572519
327203.4912,3.02173913,10.43478261,1.47826087,-1.58778626,-46.10687023,13.57251908
327223.4802,2.673913043,10.77173913,1.47826087,2.13740458,-52.87022901,13.22137405
327243.4692,2.543478261,10.91304348,1.467391304,10.59541985,-59.49618321,14.22900763
327263.4583,2.815217391,10.94565217,1.260869565,8.427480916,-57.19083969,11.08396947
327283.4473,2.804347826,10.91304348,1.52173913,7.72519084,-61.40458015,10.5648855
327303.4363,3.032608696,10.89130435,1.554347826,8.396946565,-65.75572519,11.17557252
327323.4253,3.27173913,11.01086957,1.815217391,9.114503817,-69.20610687,11.19083969
327343.4143,3.5,11.13043478,1.75,13.00763359,-70.13740458,10.27480916
327363.4033,3.630434783,11.15217391,1.402173913,15.45038168,-67.45038168,8.244274809
327383.3923,3.673913043,11.07608696,1.336956522,14.09160305,-63.57251908,6.366412214
327403.3813,3.47826087,10.95652174,1.576086957,13.32824427,-62.67175573,6.41221374
327423.3704,2.97826087,10.94565217,1.684782609,10.97709924,-68.33587786,5.786259542
327443.3594,3.043478261,10.94565217,1.532608696,5.053435115,-68.21374046,5.175572519
327463.3484,3.239130435,10.7826087,1.423913043,1.450381679,-63.20610687,3.328244275
327483.3374,3.467391304,10.70652174,1.402173913,1.679389313,-56.90076336,1.572519084
327503.3264,3.597826087,10.66304348,1.47826087,2.305343511,-51.2519084,-1.114503817
327523.3154,3.608695652,10.68478261,1.684782609,4.595419847,-47.52671756,-3.893129771
327543.3044,3.434782609,10.7173913,1.815217391,6.381679389,-44.38167939,-5.603053435
327563.2935,3.315217391,10.7826087,1.793478261,7.603053435,-40.10687023,-6.748091603
327583.2825,3.282608696,10.95652174,1.663043478,6.564885496,-35.57251908,-6.564885496
327603.2715,3.347826087,11.17391304,1.673913043,4.030534351,-30.51908397,-6.076335878
327623.2605,3.27173913,11.40217391,1.782608696,1.221374046,-27.90839695,-5.72519084
327643.2495,3.108695652,11.48913043,1.826086957,-1.404580153,-28.79389313,-6.244274809
327663.2385,2.989130435,11.34782609,1.923913043,-5.007633588,-28.45801527,-6.977099237
327683.2275,2.847826087,11.08695652,1.934782609,-7.297709924,-27.89312977,-8.030534351
327703.2166,2.967391304,10.89130435,1.869565217,-7.526717557,-28,-7.969465649
327723.2056,2.913043478,10.90217391,1.913043478,-7.282442748,-25.05343511,-8.396946565
327743.1946,2.858695652,10.88043478,1.902173913,-7.770992366,-21.49618321,-8.870229008
327763.1836,2.684782609,10.86956522,1.989130435,-5.053435115,-22.16793893,-8.519083969
327783.1726,2.663043478,10.81521739,1.956521739,-6.27480916,-23.70992366,-8.213740458
327803.1616,2.576086957,10.89130435,1.956521739,-7.145038168,-24.59541985,-7.679389313
327823.1506,2.543478261,11.02173913,1.891304348,-11.32824427,-25.20610687,-6.305343511
327843.1396,2.554347826,11.22826087,2.032608696,-14.1221374,-22.99236641,-7.709923664
327863.1287,2.72826087,10.97826087,2.336956522,-17.08396947,-20.41221374,-9.480916031
327883.1177,2.858695652,10.95652174,2.423913043,-13.52671756,-19.84732824,-10.04580153
327903.1067,2.630434783,11.63043478,2.195652174,4.122137405,-21.98473282,-6.320610687
327923.0957,2.608695652,12.93478261,1.326086957,12.09160305,-12.93129771,-4.213740458
327943.0847,2.717391304,12.83695652,0.815217391,-3.312977099,-2.625954198,-4.030534351
327963.0737,2.891304348,12.17391304,0.184782609,-3.221374046,3.709923664,-4.030534351
327983.0627,2.913043478,11.61956522,-0.010869565,-9.58778626,3.160305344,-7.419847328
328003.0518,2.739130435,10.88043478,0.489130435,-11.95419847,-2.732824427,-11.95419847
328023.0408,1.923913043,10.73913043,1.22826087,-8.503816794,-12.50381679,-14.35114504
328043.0298,1.532608696,10.76086957,1.304347826,-12.79389313,-20.10687023,-16.1221374
328063.0188,1.380434783,10.48913043,0.836956522,-14.6870229,-26.65648855,-11.66412214
328083.0078,1.652173913,10.20652174,0.510869565,-12.85496183,-23.8778626,-6.885496183
328102.9968,1.858695652,9.923913043,0.47826087,-15.45038168,-15.03816794,-4.854961832
328122.9858,1.77173913,9.97826087,0.586956522,-14.07633588,-9.496183206,-3.633587786
328142.9749,1.793478261,10.42391304,1.130434783,-13.60305344,-3.526717557,-2.183206107
328162.9639,1.717391304,11.11956522,1.52173913,-13.34351145,-0.442748092,-1.083969466
328182.9529,1.630434783,11.64130435,1.619565217,-15.34351145,-0.061068702,-0.381679389
328202.9419,2.076086957,11.93478261,1.47826087,-14.19847328,3.297709924,-0.396946565
328222.9309,2.489130435,11.94565217,1.467391304,-12.94656489,11.70992366,-2.396946565
328242.9199,2.293478261,11.63043478,1.5,-11.26717557,19.92366412,-4.65648855
328262.9089,1.72826087,11.29347826,1.336956522,-12.41221374,22.7480916,-5.145038168
328282.8979,1.195652174,10.89130435,1.239130435,-13.80152672,22.30534351,-5.267175573
328302.887,0.913043478,10.40217391,1.27173913,-12.96183206,25.06870229,-4.290076336
328322.876,0.858695652,10.34782609,1.489130435,-12.01526718,28.44274809,-3.938931298
328342.865,1.097826087,10.11956522,1.641304348,-10.91603053,29.70992366,-3.755725191
328362.854,1.304347826,10.10869565,1.782608696,-7.404580153,30.21374046,-4.366412214
328382.843,1.554347826,10.34782609,1.913043478,-5.190839695,30.15267176,-3.557251908
328402.832,1.804347826,10.67391304,1.934782609,-4.106870229,31.4351145,-2.488549618
328422.821,1.97826087,10.9673913,1.989130435,-4.732824427,35.41984733,-0.79389313
328442.8101,2.02173913,11.18478261,1.77173913,-2.27480916,38.27480916,0.549618321
328462.7991,1.913043478,11.39130435,1.641304348,0.076335878,38.83969466,-0.106870229
328482.7881,1.77173913,11.2826087,1.706521739,-0.900763359,43.41984733,-0.015267176
328502.7771,1.456521739,11.2173913,1.815217391,-0.732824427,43.75572519,-0.396946565
328522.7661,1.184782609,10.95652174,1.75,-0.977099237,42.25954198,-0.961832061
328542.7551,1.032608696,10.84782609,1.72826087,0.519083969,43.45038168,-1.297709924
328562.7441,1.010869565,10.68478261,1.836956522,-1.099236641,46.73282443,0.167938931
328582.7332,1.02173913,10.76086957,2.02173913,0.442748092,46.88549618,2.183206107
328602.7222,1.032608696,10.98913043,2.119565217,0.778625954,46.15267176,2.900763359
328622.7112,1.119565217,11.10869565,2.163043478,-0.244274809,44.50381679,2.030534351
328642.7002,1.260869565,11.30434783,2.358695652,-2.381679389,45.83206107,2.061068702
328662.6892,1.641304348,11.55434783,2.543478261,-4.015267176,50.67175573,3.053435115
328682.6782,2.173913043,11.35869565,2.456521739,-8.045801527,57.03816794,5.099236641
328702.6672,2.130434783,10.75,2.163043478,-4.183206107,53.45038168,3.328244275
328722.6563,1.22826087,10.72826087,1.793478261,1.190839695,40.96183206,0.061068702
328742.6453,0.239130435,10.92391304,1.304347826,0.396946565,29.86259542,-3.419847328
328762.6343,-0.054347826,11.11956522,0.608695652,4.65648855,20.5648855,-5.145038168
328782.6233,0.369565217,11.45652174,0.141304348,8.870229008,15.83206107,-4.045801527
328802.6123,1.565217391,11.38043478,0.423913043,3.06870229,17.86259542,-3.175572519
328822.6013,2.663043478,10.32608696,1.315217391,1.847328244,26.03053435,0.259541985
328842.5903,2.858695652,10.13043478,1.891304348,6.015267176,32.7480916,3.679389313
328862.5793,2.619565217,10.34782609,2.141304348,3.053435115,35.22137405,5.404580153
328882.5684,2.065217391,10.86956522,2.065217391,3.389312977,33.3740458,5.20610687
328902.5574,1.869565217,11.55434783,1.673913043,3.312977099,34.73282443,4.427480916
328922.5464,2.076086957,11.69565217,1.619565217,-0.717557252,39.60305344,4.244274809
328942.5354,2.423913043,11.34782609,1.597826087,-0.900763359,41.03816794,3.20610687
328962.5244,2.402173913,10.98913043,1.5,0.519083969,37.72519084,2.65648855
328982.5134,2.054347826,10.85869565,1.467391304,3.511450382,32.5648855,2.488549618
329002.5024,1.630434783,11.06521739,1.336956522,4.13740458,29.81679389,2.870229008
329022.4915,1.586956522,10.92391304,1.152173913,2.900763359,28.96183206,3.221374046
329042.4805,1.75,10.68478261,1.27173913,3.297709924,31.17557252,3.908396947
329062.4695,2.076086957,10.57608696,1.445652174,4.809160305,36.39694656,2.564885496
329082.4585,2.619565217,10.69565217,1.445652174,6.076335878,42.99236641,3.145038168
329102.4475,3.086956522,10.66304348,1.173913043,12.70229008,53.80152672,2.106870229
329122.4365,3.239130435,10.89130435,1.239130435,15.84732824,57.54198473,3.06870229
329142.4255,3.282608696,10.93478261,1.184782609,13.77099237,66.83969466,3.358778626
329162.4146,3.217391304,10.89130435,1.239130435,12.29007634,74.51908397,3.770992366
329182.4036,2.945652174,10.79347826,1.402173913,11.72519084,76.77862595,3.328244275
329202.3926,2.913043478,10.69565217,1.22826087,14.99236641,83.3129771,3.603053435
329222.3816,2.77173913,10.64130435,1.076086957,18.09160305,87.48091603,4.259541985
329242.3706,2.652173913,10.63043478,1.163043478,20.71755725,88.53435115,5.022900763
329262.3596,2.826086957,10.65217391,1.130434783,19.80152672,91.02290076,5.297709924
329282.3486,3.02173913,10.83695652,1.141304348,21.28244275,88.59541985,4.900763359
329302.3376,2.989130435,11.06521739,1.065217391,21.75572519,84.0610687,5.251908397
329322.3267,2.836956522,11.41304348,0.880434783,24.99236641,84.39694656,4.65648855
329342.3157,2.663043478,11.7826087,0.554347826,26.61068702,86.5648855,3.282442748
329362.3047,2.72826087,11.90217391,0.282608696,25.11450382,88.16793893,2.183206107
329382.2937,2.684782609,11.61956522,0.695652174,22.76335878,90.70229008,1.053435115
329402.2827,2.554347826,11.2173913,1.260869565,18.65648855,91.09923664,0.488549618
329422.2717,2.619565217,10.85869565,1.434782609,16.76335878,90.30534351,2.549618321
329442.2607,2.706521739,10.7826087,1.293478261,15.17557252,86.80916031,2.93129771
329462.2498,2.717391304,10.81521739,1.184782609,13.19083969,79.72519084,1.72519084
329482.2388,2.782608696,10.9673913,1.260869565,9.404580153,74.41221374,0.580152672
329502.2278,2.77173913,10.93478261,1.086956522,8.122137405,72.13740458,-0.076335878
329522.2168,3.173913043,10.94565217,0.695652174,9.877862595,71.8778626,-0.549618321
329542.2058,3.27173913,11.05434783,0.717391304,6.916030534,68.99236641,-2.122137405
329562.1948,3.22826087,11.0326087,0.760869565,4.763358779,67.09923664,-3.923664122
329582.1838,2.967391304,11.18478261,0.913043478,1.786259542,64.6870229,-5.312977099
329602.1729,2.652173913,11.44565217,0.923913043,-2.152671756,58.65648855,-6.396946565
329622.1619,2.576086957,11.48913043,0.934782609,-7.984732824,53.17557252,-7.435114504
329642.1509,2.815217391,11.23913043,1,-13.35877863,49.51145038,-7.129770992
329662.1399,3.25,10.94565217,1.195652174,-16.77862595,47.22137405,-6.717557252
329682.1289,3.510869565,10.79347826,1.358695652,-18.80916031,44.32061069,-5.938931298
329702.1179,3.663043478,10.70652174,1.456521739,-19.23664122,41.57251908,-6.305343511
329722.1069,3.760869565,10.68478261,1.304347826,-17.45038168,41.89312977,-8.580152672
329742.0959,3.815217391,10.68478261,1.032608696,-14.77862595,41.3740458,-10.48854962
329762.085,4,10.47826087,0.891304348,-10.97709924,40.45801527,-13.16030534
329782.074,4.119565217,10.33695652,0.836956522,-6.351145038,40.76335878,-14.61068702
329802.063,4,10.51086957,0.869565217,-5.541984733,42.70229008,-15.80152672
329822.052,3.695652174,10.77173913,0.858695652,-4.106870229,46.38167939,-15.3129771
329842.041,3.434782609,10.98913043,0.826086957,-3.664122137,47.19083969,-14.01526718
329862.03,3.282608696,11.06521739,0.804347826,-5.20610687,46.45801527,-13.45038168
329882.019,3.22826087,11.01086957,0.913043478,-7.236641221,45.26717557,-12.32061069
329902.0081,2.945652174,11.0326087,0.97826087,-7.450381679,40.45801527,-11.67938931
329921.9971,2.510869565,11.08695652,1.173913043,-9.58778626,30.15267176,-11.02290076
329941.9861,2.065217391,11.43478261,1.423913043,-9.740458015,18.94656489,-7.786259542
329961.9751,1.826086957,11.52173913,1.391304348,-13.23664122,14.85496183,-4.41221374
329981.9641,2.163043478,11.33695652,1.25,-13.75572519,14.53435115,-2.946564885
330001.9531,2.641304348,10.92391304,1.576086957,-15.02290076,15.63358779,-2.27480916
330021.9421,3.054347826,10.63043478,1.836956522,-14.7480916,16.48854962,-2.091603053
330041.9312,3.195652174,10.48913043,1.847826087,-12.54961832,15.9389313,-2.946564885
330061.9202,3.076086957,10.54347826,1.923913043,-10.24427481,15.69465649,-3.847328244
330081.9092,2.913043478,10.81521739,1.72826087,-11.17557252,20,-4.061068702
330101.8982,2.597826087,10.82608696,1.739130435,-12.25954198,24.64122137,-3.022900763
330121.8872,2.445652174,10.94565217,1.663043478,-11.60305344,27.05343511,-3.72519084
330141.8762,2.293478261,11.15217391,1.760869565,-11.29770992,26.10687023,-5.358778626
330161.8652,2.195652174,11.32608696,1.804347826,-11.8778626,26.77862595,-7.908396947
330181.8542,1.945652174,11.34782609,1.793478261,-11.9389313,27.23664122,-9.694656489
330201.8433,1.782608696,11.29347826,1.858695652,-12.61068702,29.00763359,-11.72519084
330221.8323,1.641304348,11.30434783,2.163043478,-10.64122137,34.54961832,-14.47328244
330241.8213,1.52173913,11.65217391,2.27173913,-10.53435115,37.69465649,-16.24427481
330261.8103,1.565217391,11.72826087,2.293478261,-13.29770992,45.22137405,-16.48854962
330281.7993,1.652173913,11.61956522,1.967391304,-10.80916031,50.03053435,-16.71755725
330301.7883,1.663043478,11.39130435,1.72826087,-6.259541985,55.55725191,-18.53435115
330321.7773,1.565217391,11.06521739,1.804347826,-3.297709924,60.6870229,-21.66412214
330341.7664,1.434782609,10.7826087,1.97826087,-3.190839695,67.08396947,-24.19847328
330361.7554,1.326086957,10.55434783,2.163043478,-6.65648855,76.47328244,-24.83969466
330381.7444,1.358695652,10.40217391,2.456521739,-6.213740458,85.48091603,-23.89312977
330401.7334,1.75,10.40217391,2.369565217,-3.526717557,92.67175573,-20.18320611
330421.7224,2.27173913,10.44565217,2.206521739,0.091603053,97.03816794,-16.61068702
330441.7114,2.173913043,10.45652174,2.195652174,4.41221374,97.70992366,-12.65648855
330461.7004,1.510869565,10.60869565,2.25,4.13740458,94.35114504,-9.72519084
330481.6895,0.902173913,10.83695652,2.086956522,2.045801527,90.32061069,-7.755725191
330501.6785,0.72826087,10.84782609,1.934782609,-0.839694656,85.96946565,-5.083969466
330521.6675,0.913043478,10.84782609,1.760869565,1.053435115,82.93129771,-2.748091603
330541.6565,1.358695652,10.92391304,1.815217391,1.496183206,83.75572519,-0.854961832
330561.6455,1.673913043,10.89130435,1.934782609,1.282442748,84.53435115,1.022900763
330581.6345,1.673913043,10.91304348,2.032608696,2.152671756,85.22137405,2.122137405
330601.6235,1.5,11.02173913,2.086956522,3.709923664,84.09160305,1.541984733
330621.6125,1.27173913,11.07608696,2.119565217,5.618320611,85.06870229,2.198473282
330641.6016,1.054347826,11.10869565,2.130434783,3.984732824,85.46564885,2.351145038
330661.5906,0.967391304,11.07608696,2.076086957,5.435114504,83.9389313,2.381679389
330681.5796,1.206521739,11.16304348,2.043478261,7.801526718,78.15267176,1.20610687
330701.5686,1.293478261,11,2.02173913,5.664122137,74.1221374,1.557251908
330721.5576,1.347826087,10.85869565,2.108695652,3.038167939,71.89312977,2.870229008
330741.5466,1.293478261,10.76086957,2.380434783,2.717557252,67.86259542,2.595419847
330761.5356,1.22826087,10.59782609,2.543478261,0.320610687,67.60305344,4.229007634
330781.5247,1.391304348,10.69565217,2.456521739,4.290076336,65.23664122,6.27480916
330801.5137,1.5,10.88043478,2.369565217,6,62.50381679,7.419847328
330821.5027,1.5,10.84782609,2.347826087,7.816793893,58.80916031,8.809160305
330841.4917,1.467391304,10.81521739,2.380434783,8.244274809,54.04580153,8.396946565
330861.4807,1.5,10.75,2.630434783,8.183206107,50.93129771,7.618320611
330881.4697,1.641304348,10.88043478,2.684782609,6.351145038,49.69465649,7.618320611
330901.4587,1.72826087,11,2.554347826,4.335877863,48.09160305,9.404580153
330921.4478,1.934782609,11.05434783,2.663043478,0.27480916,49.90839695,11.9389313
330941.4368,2.25,11,2.72826087,-2.549618321,52.76335878,14.99236641
330961.4258,2.347826087,10.7826087,2.815217391,-3.496183206,52.91603053,17.17557252
330981.4148,2.163043478,10.82608696,2.739130435,-3.465648855,51.03816794,17.28244275
331001.4038,1.358695652,11.31521739,2.163043478,1.34351145,39.3740458,16.22900763
331021.3928,0.956521739,12.30434783,1.5,12.88549618,30.36641221,12.91603053
331041.3818,0.989130435,12.38043478,1.22826087,4.488549618,34.53435115,12.71755725
331061.3708,1.423913043,11.79347826,0.902173913,7.694656489,28,14.42748092
331081.3599,1.739130435,11.95652174,0.391304348,20.96183206,20.48854962,8.977099237
331101.3489,2.065217391,12.41304348,0.75,16.30534351,15.35877863,3.664122137
331121.3379,2.456521739,11.86956522,1.076086957,11.66412214,17.9389313,4.183206107
331141.3269,2.260869565,11.05434783,1.663043478,3.969465649,18.71755725,6.427480916
331161.3159,2.358695652,10.34782609,1.836956522,-1.984732824,25.60305344,9.267175573
331181.3049,2.836956522,10.13043478,1.456521739,-0.366412214,35.81679389,9.969465649
331201.2939,2.902173913,10.15217391,1.27173913,-0.671755725,43.32824427,10
331221.283,2.739130435,10.27173913,1.184782609,-0.076335878,43.23664122,9.06870229
331241.272,2.489130435,10.45652174,0.989130435,-1.236641221,36.83969466,5.114503817
331261.261,2.402173913,10.43478261,1.086956522,-5.847328244,27.12977099,2.045801527
331281.25,2.576086957,10.59782609,1.358695652,-6.717557252,21.20610687,0.244274809
331301.239,2.782608696,10.95652174,1.260869565,-6.229007634,20.09160305,1.160305344
331321.228,2.869565217,11.32608696,0.684782609,-3.86259542,19.72519084,6.106870229
331341.217,2.836956522,11.9673913,0.27173913,3.847328244,9.893129771,10.25954198
331361.2061,2.717391304,12.26086957,0.293478261,-1.267175573,2.13740458,10.18320611
331381.1951,2.076086957,11.60869565,0.858695652,-4.625954198,-3.603053435,9.358778626
331401.1841,2.043478261,11.38043478,1.054347826,-0.702290076,-11.32824427,10.18320611
331421.1731,2.489130435,11.22826087,0.815217391,-10.80916031,-9.190839695,10.22900763
331441.1621,2.782608696,10.7173913,1.380434783,-17.09923664,-12.45801527,11.29770992
331461.1511,3.315217391,10.15217391,1.913043478,-18.33587786,-11.98473282,9.603053435
331481.1401,3.467391304,9.793478261,2.206521739,-9.740458015,-10.99236641,5.358778626
331501.1292,3.293478261,9.967391304,2.326086957,-3.618320611,-12.44274809,1.129770992
331521.1182,2.913043478,10.35869565,2.065217391,-2.702290076,-17.41984733,-1.816793893
331541.1072,2.684782609,10.72826087,1.847826087,-4.778625954,-20.82442748,-2.961832061
331561.0962,2.630434783,10.94565217,1.717391304,-6.320610687,-20.59541985,-3.251908397
331581.0852,2.706521739,11.02173913,1.793478261,-6.732824427,-20.67175573,-3.58778626
331601.0742,2.967391304,10.98913043,1.913043478,-4.992366412,-22.73282443,-4.488549618
331621.0632,3.22826087,10.88043478,1.858695652,-2.320610687,-24.33587786,-6.061068702
331641.0522,3.347826087,10.80434783,1.858695652,-1.175572519,-25.00763359,-8.320610687
331661.0413,3.532608696,10.76086957,1.793478261,0.778625954,-22.82442748,-9.511450382
331681.0303,3.554347826,10.79347826,1.532608696,4.061068702,-19.02290076,-9.236641221
331701.0193,3.445652174,10.91304348,1.489130435,3.755725191,-16.51908397,-8.488549618
331721.0083,2.902173913,10.90217391,1.673913043,2.015267176,-20.27480916,-7.816793893
331740.9973,2.619565217,10.93478261,1.891304348,-0.488549618,-24.83969466,-6.259541985
331760.9863,2.52173913,11.04347826,2.141304348,-2.79389313,-30.09160305,-5.740458015
331780.9753,2.532608696,11.20652174,2.445652174,-9.145038168,-33.54198473,-4.702290076
331800.9644,2.760869565,11.17391304,2.804347826,-16.19847328,-34.91603053,-2.595419847
331820.9534,2.902173913,11.14130435,3.043478261,-20,-38.27480916,-1.419847328
331840.9424,3.239130435,11.0326087,3.195652174,-25.72519084,-40.96183206,-2.473282443
331860.9314,3.5,10.91304348,3.239130435,-28.67175573,-42.41221374,-4.854961832
331880.9204,3.869565217,10.84782609,2.760869565,-29.63358779,-41.58778626,-9.160305344
331900.9094,4.02173913,10.77173913,2.097826087,-21.4351145,-40.65648855,-10.03053435
331920.8984,3.119565217,11.73913043,1.326086957,1.511450382,-43.8778626,-8.763358779
